#time,accel_x,accel_y,accel_z
313.048829,15100.201217,5477.523971,-68795.375720
313.051347,6365.771101,2960.823768,-72012.976812
313.053865,7105.977043,-148.041188,-71246.881314
313.056383,13767.830521,5329.482782,-68948.594820
313.058901,12879.583391,2812.782580,-70174.347617
313.061419,8734.430116,3552.988522,-70787.224015
313.063937,12435.459826,3997.112087,-69867.909418
313.066455,9178.553681,1332.370696,-71246.881314
313.068973,7994.224174,1184.329507,-72012.976812
313.071491,11547.212695,3404.947333,-70327.566716
313.074009,11991.336260,4293.194464,-70021.128517
313.076527,9178.553681,888.247130,-70634.004916
313.079045,7994.224174,3701.029710,-71859.757712
313.081563,11399.171507,2812.782580,-70174.347617
313.084081,11251.130318,1480.411884,-69408.252119
313.086599,9918.759623,3701.029710,-71400.100414
313.089117,14211.954086,3256.906145,-68642.156621
313.091635,8882.471304,2072.576638,-71400.100414
313.094153,3997.112087,2368.659014,-73545.167808
313.096671,7846.182985,148.041188,-72012.976812
313.099189,14952.160028,4589.276840,-68948.594820
313.101707,11843.295072,6217.729913,-69867.909418
313.104225,11991.336260,3552.988522,-70021.128517
313.106743,8142.265362,8438.347739,-72625.853210
313.109288,8142.265362,2516.700203,-72472.634111
313.111834,11399.171507,1480.411884,-69867.909418
313.114379,9622.677246,4589.276840,-70634.004916
313.116925,19245.354492,7254.018232,-63432.707234
313.119470,1184.329507,1480.411884,-72779.072310
313.122016,-8290.306550,-1924.535449,-82738.313784
313.124562,-7402.059420,296.082377,-72472.634111
313.127107,17468.860231,3256.906145,-63432.707234
313.129653,3108.864956,8882.471304,-75537.016103
313.132198,19985.560434,-4145.153275,-72319.415011
313.134744,8142.265362,888.247130,-70327.566716
313.137290,-1628.453072,5181.441594,-67109.965625
313.139835,-9622.677246,1184.329507,-72932.291410
313.142381,444.123565,1628.453072,-73545.167808
313.144926,55663.486838,1776.494261,-64352.021832
313.147472,1924.535449,-1480.411884,-78754.617194
313.150017,-6513.812290,-148.041188,-74464.482406
313.152563,7402.059420,6217.729913,-65730.993728
313.155109,8586.388927,4145.153275,-69561.471218
313.157654,19393.395680,5477.523971,-73391.948708
313.160200,19837.519246,3849.070898,-66803.527426
313.162745,14656.077652,5477.523971,-68795.375720
313.165291,-3256.906145,2516.700203,-75843.454302
313.167836,30792.567187,2960.823768,-65424.555529
313.170382,15248.242405,6069.688724,-72779.072310
313.172928,17764.942608,2960.823768,-68182.499322
313.175473,2812.782580,-444.123565,-73391.948708
313.178019,15692.365970,8734.430116,-67109.965625
313.180564,30496.484810,-2368.659014,-64658.460031
313.183110,-9918.759623,888.247130,-79520.712692
313.185656,12139.377449,2812.782580,-67876.061123
313.188201,23686.590144,7105.977043,-67263.184724
313.190747,4885.359217,4885.359217,-75537.016103
313.193292,15692.365970,5181.441594,-69867.909418
313.195838,26943.496289,3997.112087,-64505.240932
313.198383,5181.441594,-296.082377,-72932.291410
313.200929,16876.695478,-1924.535449,-72012.976812
313.203475,7846.182985,10214.842000,-69714.690318
313.206020,26351.331535,5033.400406,-64505.240932
313.208566,-4737.318029,5625.565159,-74158.044206
313.210971,7402.059420,296.082377,-74464.482406
313.213377,35825.967593,4737.318029,-66037.431928
313.215782,13175.665768,2220.617826,-70174.347617
313.218188,11843.295072,2960.823768,-73085.510509
313.220594,38342.667796,2960.823768,-64352.021832
313.222999,-15396.283594,6661.853478,-77222.426198
313.225405,-14063.912898,-2368.659014,-67416.403824
313.227810,42931.944636,8882.471304,-65884.212828
313.230216,48705.550984,8882.471304,-67109.965625
313.232621,-1184.329507,3404.947333,-69408.252119
313.235027,-57291.939911,-1184.329507,-78448.178995
313.237432,17912.983796,15692.365970,-70940.443115
313.239838,68987.193794,10807.006753,-69101.813920
313.242243,34345.555709,6217.729913,-66497.089226
313.244649,-55219.363273,-7994.224174,-75230.577904
313.247055,-41155.450375,5329.482782,-70021.128517
313.249460,28571.949361,6069.688724,-74158.044206
313.251866,65434.205273,1776.494261,-64505.240932
313.254271,-8142.265362,-592.164754,-74158.044206
313.256677,-34197.514520,3997.112087,-70940.443115
313.259082,2368.659014,5773.606348,-73851.606007
313.261488,44708.438897,8142.265362,-68795.375720
313.263893,22946.384202,3701.029710,-69255.033019
313.266299,-10807.006753,1036.288319,-70634.004916
313.268705,-28275.866984,4441.235652,-75537.016103
313.271110,21910.095883,-3108.864956,-71093.662214
313.273516,23686.590144,11251.130318,-72319.415011
313.275921,27535.661042,4441.235652,-62666.611736
313.278327,-17616.901420,8142.265362,-78601.398095
313.280732,17024.736666,-888.247130,-73545.167808
313.283138,22798.343014,7994.224174,-65424.555529
313.285543,1036.288319,-1924.535449,-68029.280222
313.287949,-7994.224174,3256.906145,-77528.864398
313.290355,14211.954086,2812.782580,-67876.061123
313.292760,15248.242405,-888.247130,-70174.347617
313.295166,-888.247130,3404.947333,-75230.577904
313.297571,19689.478057,1924.535449,-65118.117330
313.299977,-7846.182985,592.164754,-76762.768900
313.302382,4589.276840,2960.823768,-71400.100414
313.304788,13175.665768,7994.224174,-70021.128517
313.307254,1184.329507,4589.276840,-70634.004916
313.309720,2664.741391,-2220.617826,-69867.909418
313.312186,-5625.565159,740.205942,-78448.178995
313.314652,31236.690752,11251.130318,-67722.842023
313.317118,26351.331535,1332.370696,-68335.718422
313.319585,-15840.407159,-9622.677246,-75690.235202
313.322051,8882.471304,3552.988522,-60827.982541
313.324517,-3256.906145,8734.430116,-80746.465489
313.326983,27979.784608,8734.430116,-78907.836294
313.329449,15248.242405,-10066.800811,-59908.667944
313.331915,-61141.010809,6513.812290,-78754.617194
313.334381,21614.013506,5181.441594,-69408.252119
313.336847,79350.076982,1776.494261,-67569.622924
313.339313,39230.914926,8882.471304,-65577.774629
313.341780,-35233.802839,-592.164754,-72319.415011
313.344246,-27239.578666,4441.235652,-72319.415011
313.346712,33013.185013,5329.482782,-70174.347617
313.349178,55071.322085,7846.182985,-70021.128517
313.351644,19985.560434,6069.688724,-72012.976812
313.354110,-2664.741391,444.123565,-67569.622924
313.356576,-5921.647536,4441.235652,-75537.016103
313.359042,45004.521274,1036.288319,-67416.403824
313.361509,32272.979071,-444.123565,-68182.499322
313.363975,-13471.748144,1184.329507,-71400.100414
313.366441,-18357.107362,-2072.576638,-77988.521696
313.368907,45300.603650,2072.576638,-65577.774629
313.371373,29756.278868,8142.265362,-65118.117330
313.373839,-11991.336260,888.247130,-75843.454302
313.376305,29904.320057,1776.494261,-64352.021832
313.378771,9030.512492,12583.501014,-75996.673402
313.381237,5921.647536,-888.247130,-73391.948708
313.383704,38490.708984,-1628.453072,-58529.696047
313.386170,-1036.288319,5181.441594,-74924.139704
313.388636,1776.494261,0.000000,-75996.673402
313.391102,34345.555709,888.247130,-60674.763442
313.393568,10362.883188,8734.430116,-71400.100414
313.396034,-9918.759623,1036.288319,-80133.589091
313.398500,26351.331535,0.000000,-64505.240932
313.400966,26943.496289,5773.606348,-68335.718422
313.403432,3108.864956,2812.782580,-75537.016103
313.405939,18209.066173,-4885.359217,-69408.252119
313.408445,12435.459826,-3701.029710,-66497.089226
313.410951,-35825.967593,3849.070898,-79367.493593
313.413457,37602.461854,11399.171507,-65577.774629
313.415963,56699.775157,12879.583391,-66343.870127
313.418469,-18505.148550,3997.112087,-77528.864398
313.420975,-45152.562462,-2960.823768,-69867.909418
313.423481,23982.672521,18209.066173,-69255.033019
313.425987,50926.168810,-3701.029710,-75383.797003
313.428493,47077.097911,5773.606348,-70327.566716
313.430999,-40415.244433,1480.411884,-66343.870127
313.433505,-37898.544230,3552.988522,-73391.948708
313.436011,27239.578666,-444.123565,-79214.274493
313.438517,73428.429446,3552.988522,-61594.078039
313.441023,-7846.182985,5181.441594,-75383.797003
313.443529,-33753.390955,6513.812290,-72932.291410
313.446035,0.000000,3552.988522,-71093.662214
313.448541,42339.779882,-1628.453072,-69714.690318
313.451047,19837.519246,4293.194464,-72779.072310
313.453553,-6809.894666,2516.700203,-68488.937521
313.456059,-21762.054695,1924.535449,-76149.892501
313.458566,23834.631332,-2368.659014,-73085.510509
313.461072,32124.937883,5921.647536,-66037.431928
313.463578,888.247130,5033.400406,-67722.842023
313.466084,-15248.242405,-444.123565,-79367.493593
313.468590,15544.324782,2664.741391,-73698.386908
313.471096,8586.388927,6809.894666,-73545.167808
313.473602,17172.777854,5033.400406,-61287.639840
313.476108,-13619.789333,8290.306550,-74464.482406
313.478614,5181.441594,3849.070898,-75843.454302
313.481120,33309.267390,2220.617826,-64811.679131
313.483626,-592.164754,7994.224174,-70940.443115
313.486132,-13175.665768,4145.153275,-75690.235202
313.488638,28127.825796,-888.247130,-64964.898230
313.491144,11991.336260,6513.812290,-72166.195912
313.493650,-4885.359217,19837.519246,-74004.825107
313.496156,-9622.677246,5329.482782,-74004.825107
313.498662,17468.860231,1184.329507,-69101.813920
313.501168,34641.638086,9622.677246,-66497.089226
313.503674,14211.954086,-7994.224174,-72319.415011
313.506207,-20577.725188,7254.018232,-70940.443115
313.508740,-2812.782580,-1184.329507,-74464.482406
313.511273,78017.706287,4589.276840,-67722.842023
313.513806,34197.514520,1036.288319,-68029.280222
313.516339,-38046.585419,-11399.171507,-69714.690318
313.518872,-42043.697506,6957.935855,-75690.235202
313.521405,54035.033766,9474.636058,-69408.252119
313.523937,72244.099939,9326.594869,-67876.061123
313.526470,3997.112087,5773.606348,-67722.842023
313.529003,-37306.379477,2960.823768,-70174.347617
313.531536,-7698.141797,2368.659014,-70787.224015
313.534069,49445.756926,3701.029710,-74464.482406
313.536602,43820.191766,3701.029710,-66497.089226
313.539135,-13027.624579,-740.205942,-69714.690318
313.541668,-11399.171507,1924.535449,-70940.443115
313.544201,15396.283594,8438.347739,-74617.701505
313.546733,47225.139100,1036.288319,-68335.718422
313.549266,15248.242405,3552.988522,-65730.993728
313.551799,-2664.741391,7550.100608,-66343.870127
313.554332,2812.782580,4737.318029,-74924.139704
313.556865,37750.503042,-592.164754,-69101.813920
313.559398,-3108.864956,5625.565159,-74617.701505
313.561931,2812.782580,2220.617826,-72472.634111
313.564464,27091.537477,5625.565159,-70327.566716
313.566996,23390.507767,4737.318029,-70021.128517
313.569529,23242.466579,444.123565,-66343.870127
313.572062,-9622.677246,4885.359217,-72012.976812
313.574595,7254.018232,3552.988522,-72166.195912
313.577128,38342.667796,5477.523971,-63279.488135
313.579661,3256.906145,5181.441594,-75996.673402
313.582194,7105.977043,592.164754,-72319.415011
313.584727,17172.777854,-592.164754,-64811.679131
313.587260,17912.983796,9326.594869,-73238.729609
313.589792,34641.638086,10066.800811,-67722.842023
313.592325,3849.070898,-1480.411884,-68642.156621
313.594858,-26055.249158,4293.194464,-71553.319513
313.597391,13323.706956,4885.359217,-71553.319513
313.599924,60400.804867,-2960.823768,-69255.033019
313.602457,14211.954086,-2664.741391,-69101.813920
313.604990,-59660.598925,148.041188,-74617.701505
313.607538,-3256.906145,14063.912898,-71553.319513
313.610086,62621.422693,1036.288319,-73851.606007
313.612635,34345.555709,6957.935855,-67876.061123
313.615183,-51814.415940,-5921.647536,-74464.482406
313.617731,-48113.386230,7846.182985,-71400.100414
313.620279,25167.002028,6957.935855,-75077.358804
313.622828,61585.134374,8438.347739,-68795.375720
313.625376,19837.519246,2220.617826,-69714.690318
313.627924,-30940.608376,740.205942,-69101.813920
313.630473,-18357.107362,5329.482782,-72932.291410
313.633021,35529.885216,1776.494261,-72932.291410
313.635569,43968.232955,-888.247130,-67263.184724
313.638117,-13175.665768,4737.318029,-73391.948708
313.640666,-19541.436869,2812.782580,-72319.415011
313.643214,1924.535449,8882.471304,-77988.521696
313.645762,47225.139100,6069.688724,-65577.774629
313.648311,6365.771101,1184.329507,-68182.499322
313.650859,-15544.324782,5477.523971,-72472.634111
313.653407,-5921.647536,296.082377,-79827.150892
313.655955,33161.226202,2516.700203,-64964.898230
313.658504,31532.773129,9622.677246,-58529.696047
313.661052,-46781.015534,6809.894666,-88560.639569
313.663600,25167.002028,-592.164754,-62973.049936
313.666148,37898.544230,5033.400406,-62360.173537
313.668697,-6513.812290,3256.906145,-75077.358804
313.671245,-9326.594869,5773.606348,-74617.701505
313.673793,14211.954086,2812.782580,-68642.156621
313.676342,8290.306550,6957.935855,-69561.471218
313.678890,-3701.029710,-592.164754,-77988.521696
313.681438,29312.155303,-1776.494261,-68029.280222
313.683986,27979.784608,6957.935855,-65577.774629
313.686535,-11399.171507,-3552.988522,-78141.740796
313.689083,-13619.789333,-4737.318029,-69561.471218
313.691631,10807.006753,6069.688724,-72012.976812
313.694180,79053.994606,14952.160028,-65730.993728
313.696728,16284.530724,-148.041188,-69867.909418
313.699276,-34937.720462,-11251.130318,-66650.308326
313.701824,-26351.331535,3849.070898,-73391.948708
313.704373,58772.351795,6809.894666,-68795.375720
313.706921,55071.322085,296.082377,-72625.853210
313.709480,4441.235652,3849.070898,-65271.336430
313.712039,-45152.562462,5773.606348,-74004.825107
313.714597,3552.988522,2220.617826,-69561.471218
313.717156,53294.827824,1332.370696,-71093.662214
313.719715,27979.784608,-1184.329507,-70174.347617
313.722274,-6365.771101,5033.400406,-68488.937521
313.724833,-22502.260637,1332.370696,-76303.111601
313.727391,34789.679274,1184.329507,-68488.937521
313.729950,31680.814318,3404.947333,-73698.386908
313.732509,-7105.977043,10066.800811,-73851.606007
313.735068,-1480.411884,11251.130318,-64964.898230
313.737627,22354.219448,4737.318029,-68182.499322
313.740185,21762.054695,592.164754,-74158.044206
313.742744,13915.871710,7846.182985,-69255.033019
313.745303,-14656.077652,3997.112087,-78907.836294
313.747862,21317.931130,-1776.494261,-70634.004916
313.750421,48853.592172,1776.494261,-60827.982541
313.752979,5329.482782,4293.194464,-71093.662214
313.755538,-20725.766376,-1184.329507,-77988.521696
313.758097,30792.567187,444.123565,-65424.555529
313.760656,37010.297100,5921.647536,-66037.431928
313.763215,-9030.512492,1184.329507,-79673.931792
313.765773,16876.695478,-5329.482782,-68182.499322
313.768332,31088.649564,4441.235652,-65118.117330
313.770891,23538.548956,2368.659014,-68642.156621
313.773450,-19097.313304,-4441.235652,-76762.768900
313.776009,-8290.306550,10955.047942,-68335.718422
313.778567,27535.661042,11103.089130,-71246.881314
313.781126,61733.175563,3552.988522,-66650.308326
313.783685,-29904.320057,-2072.576638,-74617.701505
313.786244,-30940.608376,-4737.318029,-65118.117330
313.788803,11695.253884,14952.160028,-79980.369991
313.791361,79942.241736,7105.977043,-65730.993728
313.793920,31680.814318,16136.489536,-68795.375720
313.796479,-50778.127621,-2812.782580,-71859.757712
313.799038,-36714.214723,5773.606348,-75690.235202
313.801597,39526.997303,6069.688724,-75230.577904
313.804155,66618.534780,4293.194464,-62666.611736
313.806714,-17912.983796,5625.565159,-75690.235202
313.809273,-31236.690752,1036.288319,-69561.471218
313.811749,-3552.988522,5181.441594,-75690.235202
313.814225,53590.910201,6661.853478,-67876.061123
313.816701,20725.766376,4441.235652,-70634.004916
313.819176,-16432.571912,2368.659014,-70174.347617
313.821652,3997.112087,9178.553681,-63739.145434
313.824128,31976.896694,2072.576638,-69255.033019
313.826604,17468.860231,296.082377,-73238.729609
313.829080,-10955.047942,7846.182985,-71093.662214
313.831556,-14063.912898,-2516.700203,-75077.358804
313.834032,30200.402434,6217.729913,-69714.690318
313.836508,28719.990550,9326.594869,-64198.802732
313.838984,-20429.683999,-3849.070898,-77069.207099
313.841459,-6069.688724,4589.276840,-72625.853210
313.843935,27091.537477,5921.647536,-65271.336430
313.846411,5329.482782,-1184.329507,-72625.853210
313.848887,-3997.112087,4145.153275,-73698.386908
313.851363,0.000000,4885.359217,-70021.128517
313.853839,11547.212695,2368.659014,-66650.308326
313.856315,11843.295072,2960.823768,-76456.330700
313.858791,18653.189738,9030.512492,-70480.785816
313.861267,16728.654289,-296.082377,-69561.471218
313.863742,-9622.677246,148.041188,-69867.909418
313.866218,-22946.384202,-1480.411884,-72472.634111
313.868694,25463.084405,2220.617826,-74158.044206
313.871170,83495.230258,11103.089130,-62973.049936
313.873646,3997.112087,-2220.617826,-67263.184724
313.876122,-61585.134374,6957.935855,-78754.617194
313.878598,12731.542202,-4441.235652,-74158.044206
313.881074,96078.731272,11843.295072,-62666.611736
313.883549,37750.503042,4145.153275,-68182.499322
313.886025,-37750.503042,-3997.112087,-71246.881314
313.888501,-33457.308578,-5773.606348,-75383.797003
313.890977,40415.244433,3701.029710,-66343.870127
313.893453,63953.793389,1036.288319,-68488.937521
313.895929,5773.606348,4145.153275,-73851.606007
313.898405,-10658.965565,4293.194464,-66803.527426
313.900881,8438.347739,1628.453072,-70174.347617
313.903357,32865.143825,4293.194464,-75537.016103
313.905832,24722.878463,740.205942,-69867.909418
313.908308,7254.018232,9474.636058,-60061.887043
313.910813,-7846.182985,6365.771101,-74924.139704
313.913318,27831.743419,2516.700203,-72932.291410
313.915824,36122.049970,3701.029710,-65577.774629
313.918329,-8142.265362,2960.823768,-71706.538613
313.920834,5625.565159,-2072.576638,-72012.976812
313.923339,43672.150578,6069.688724,-63126.269035
313.925844,-888.247130,10510.924376,-77222.426198
313.928349,9474.636058,148.041188,-67876.061123
313.930854,10214.842000,4737.318029,-70940.443115
313.933359,15248.242405,8290.306550,-72932.291410
313.935864,20725.766376,2072.576638,-65884.212828
313.938369,5625.565159,0.000000,-76456.330700
313.940874,34197.514520,19393.395680,-64964.898230
313.943379,12435.459826,6661.853478,-66803.527426
313.945884,-14063.912898,-14359.995275,-70787.224015
313.948390,-3404.947333,6513.812290,-73391.948708
313.950895,41895.656317,-3108.864956,-72932.291410
313.953400,33161.226202,-3701.029710,-62206.954438
313.955905,-66470.493592,6069.688724,-74158.044206
313.958410,-18949.272115,6217.729913,-77069.207099
313.960915,64693.999331,592.164754,-71706.538613
313.963420,60400.804867,5181.441594,-66190.651027
313.965925,-20429.683999,7994.224174,-72932.291410
313.968430,-55663.486838,7402.059420,-69101.813920
313.970935,-3404.947333,3108.864956,-75230.577904
313.973440,62029.257940,3108.864956,-68182.499322
313.975945,41895.656317,7254.018232,-67722.842023
313.978450,-34937.720462,4293.194464,-72472.634111
313.980956,-35381.844028,1776.494261,-78601.398095
313.983461,51814.415940,3997.112087,-63892.364533
313.985966,30792.567187,4293.194464,-73545.167808
313.988471,1036.288319,-5033.400406,-69408.252119
313.990976,-7254.018232,3108.864956,-64658.460031
313.993481,-2516.700203,6809.894666,-75230.577904
313.995986,43079.985824,-3849.070898,-71706.538613
313.998491,1628.453072,4441.235652,-70787.224015
314.000996,-37750.503042,3701.029710,-76149.892501
314.003501,27239.578666,2516.700203,-67876.061123
314.006006,41155.450375,4441.235652,-62819.830836
314.008511,-3701.029710,4885.359217,-75996.673402
314.011038,-7698.141797,1480.411884,-70174.347617
314.013565,8586.388927,7254.018232,-70327.566716
314.016092,592.164754,3404.947333,-75996.673402
314.018619,18801.230927,11251.130318,-66803.527426
314.021146,-19541.436869,9474.636058,-77528.864398
314.023673,15692.365970,1480.411884,-66190.651027
314.026200,8586.388927,2368.659014,-73698.386908
314.028727,35825.967593,7105.977043,-69714.690318
314.031254,148.041188,-3997.112087,-70327.566716
314.033781,-36566.173535,27387.619854,-73391.948708
314.036308,12435.459826,13619.789333,-70480.785816
314.038835,71503.893997,1924.535449,-68488.937521
314.041362,31236.690752,8734.430116,-69561.471218
314.043889,-37750.503042,2812.782580,-67109.965625
314.046417,-46188.850781,14508.036463,-75077.358804
314.048944,49741.839302,6809.894666,-68795.375720
314.051471,73428.429446,-592.164754,-71246.881314
314.053998,23094.425390,4885.359217,-61594.078039
314.056525,-58032.145853,9326.594869,-77835.302597
314.059052,15692.365970,1628.453072,-68335.718422
314.061579,50926.168810,7105.977043,-74004.825107
314.064106,49741.839302,4145.153275,-67109.965625
314.066633,-14656.077652,-1332.370696,-68488.937521
314.069160,-22798.343014,6069.688724,-73698.386908
314.071687,17172.777854,2812.782580,-75077.358804
314.074214,42191.738694,5921.647536,-70174.347617
314.076741,29164.114115,6069.688724,-63892.364533
314.079268,-22946.384202,4885.359217,-71093.662214
314.081795,7254.018232,888.247130,-73545.167808
314.084322,58476.269418,-2368.659014,-65884.212828
314.086849,-19837.519246,1776.494261,-76915.987999
314.089376,5329.482782,-2960.823768,-70327.566716
314.091916,30940.608376,3849.070898,-62973.049936
314.094455,16728.654289,1184.329507,-73085.510509
314.096995,7698.141797,-740.205942,-74464.482406
314.099535,27387.619854,4737.318029,-64811.679131
314.102075,7550.100608,5181.441594,-70787.224015
314.104615,15248.242405,5033.400406,-69408.252119
314.107155,21762.054695,8882.471304,-74311.263306
314.109694,17320.819043,2516.700203,-67109.965625
314.112234,-16136.489536,-14508.036463,-72166.195912
314.114774,-23834.631332,11399.171507,-76149.892501
314.117314,47669.262665,7698.141797,-68795.375720
314.119854,72688.223504,8142.265362,-61747.297139
314.122394,-47077.097911,-6217.729913,-75996.673402
314.124933,-50926.168810,-5329.482782,-71246.881314
314.127473,25018.960840,11399.171507,-76609.549800
314.130013,87492.342344,8734.430116,-63432.707234
314.132553,23538.548956,11547.212695,-71093.662214
314.135093,-58476.269418,3552.988522,-71859.757712
314.137633,-36862.255912,1332.370696,-75537.016103
314.140172,44264.315332,8734.430116,-73698.386908
314.142712,61733.175563,6217.729913,-64352.021832
314.145252,-11399.171507,-1184.329507,-72166.195912
314.147792,-37158.338288,5477.523971,-72472.634111
314.150332,3849.070898,2960.823768,-71859.757712
314.152872,50482.045244,3404.947333,-70480.785816
314.155411,11843.295072,3404.947333,-72779.072310
314.157951,1776.494261,6957.935855,-61594.078039
314.160491,-20725.766376,4737.318029,-73851.606007
314.163031,40563.285622,2516.700203,-73698.386908
314.165571,4737.318029,1480.411884,-68795.375720
314.168111,-47669.262665,2516.700203,-81512.560987
314.170650,32569.061448,3404.947333,-64658.460031
314.173190,34641.638086,10362.883188,-65424.555529
314.175730,-8142.265362,3849.070898,-80899.684589
314.178270,-6217.729913,-1184.329507,-69255.033019
314.180810,16136.489536,6217.729913,-64811.679131
314.183350,-148.041188,4737.318029,-75230.577904
314.185889,4589.276840,2812.782580,-72012.976812
314.188429,17468.860231,-7994.224174,-65118.117330
314.190969,7846.182985,2664.741391,-69101.813920
314.193520,11399.171507,6365.771101,-74158.044206
314.196071,27535.661042,1776.494261,-70327.566716
314.198622,-3256.906145,-6957.935855,-68642.156621
314.201173,-30200.402434,-6661.853478,-73085.510509
314.203724,35825.967593,-4441.235652,-70634.004916
314.206275,86011.930460,9622.677246,-62360.173537
314.208826,-10510.924376,-4589.276840,-72625.853210
314.211377,-50334.004056,5329.482782,-72625.853210
314.213928,21465.972318,2812.782580,-69714.690318
314.216480,93413.989880,5329.482782,-62513.392637
314.219031,24426.796086,296.082377,-73238.729609
314.221582,-21910.095883,-3997.112087,-67876.061123
314.224133,-27831.743419,4293.194464,-73698.386908
314.226684,35085.761651,5921.647536,-68182.499322
314.229235,54923.280896,1184.329507,-71400.100414
314.231786,16136.489536,-1332.370696,-69561.471218
314.234337,-23390.507767,0.000000,-70480.785816
314.236888,-5033.400406,3108.864956,-73238.729609
314.239439,30348.443622,5477.523971,-71553.319513
314.241990,-888.247130,-1036.288319,-76303.111601
314.244541,19097.313304,5477.523971,-56844.285952
314.247092,-28571.949361,4293.194464,-86568.791274
314.249643,55663.486838,-740.205942,-63739.145434
314.252194,15396.283594,5773.606348,-72319.415011
314.254745,10807.006753,8882.471304,-65884.212828
314.257296,-1184.329507,6365.771101,-70480.785816
314.259847,13767.830521,-740.205942,-74464.482406
314.262398,37454.420665,7254.018232,-65118.117330
314.264949,10658.965565,6069.688724,-70021.128517
314.267500,1924.535449,2072.576638,-71553.319513
314.270052,4589.276840,-1184.329507,-75077.358804
314.272603,44708.438897,11695.253884,-66190.651027
314.275154,8882.471304,9622.677246,-71553.319513
314.277705,-13323.706956,-13619.789333,-67109.965625
314.280256,-14211.954086,6513.812290,-76303.111601
314.282807,62177.299128,-1332.370696,-67876.061123
314.285358,44560.397708,6661.853478,-65118.117330
314.287909,-55959.569215,1628.453072,-75077.358804
314.290460,-39823.079680,7698.141797,-75383.797003
314.293011,55071.322085,-7105.977043,-68488.937521
314.295502,62473.381505,3108.864956,-68948.594820
314.297994,-23390.507767,2516.700203,-74158.044206
314.300486,-52258.539505,3552.988522,-67109.965625
314.302977,-2812.782580,3256.906145,-74158.044206
314.305469,53590.910201,3256.906145,-70021.128517
314.307960,43228.027013,3404.947333,-66956.746525
314.310452,-25463.084405,-1332.370696,-73851.606007
314.312943,-31384.731941,2812.782580,-69714.690318
314.315435,15988.448347,7550.100608,-76915.987999
314.317926,50482.045244,3256.906145,-66343.870127
314.320418,-30200.402434,6513.812290,-81206.122788
314.322909,14211.954086,4589.276840,-60981.201641
314.325401,-10214.842000,1924.535449,-74311.263306
314.327892,38342.667796,-740.205942,-67569.622924
314.330384,10955.047942,15100.201217,-68795.375720
314.332875,-10362.883188,-3552.988522,-70787.224015
314.335367,4589.276840,3256.906145,-71859.757712
314.337858,1480.411884,2664.741391,-77682.083497
314.340350,33013.185013,888.247130,-65118.117330
314.342841,-15100.201217,3404.947333,-75537.016103
314.345333,-19985.560434,4441.235652,-77682.083497
314.347824,7402.059420,8734.430116,-69714.690318
314.350316,11547.212695,-1628.453072,-74464.482406
314.352807,36566.173535,1184.329507,-60521.544342
314.355299,-1628.453072,7698.141797,-75690.235202
314.357790,1480.411884,6069.688724,-75077.358804
314.360282,6513.812290,-1628.453072,-63126.269035
314.362773,-2812.782580,-3108.864956,-72625.853210
314.365265,49297.715737,-740.205942,-72012.976812
314.367757,49889.880491,4441.235652,-70787.224015
314.370248,-10955.047942,5329.482782,-64045.583633
314.372740,-59956.681302,17320.819043,-83504.409282
314.375231,58920.392983,10510.924376,-63279.488135
314.377723,72392.141128,4589.276840,-69867.909418
314.380214,20133.601622,9474.636058,-64505.240932
314.382706,-45892.768404,-2368.659014,-75537.016103
314.385197,-4441.235652,5033.400406,-72166.195912
314.387689,55367.404462,7254.018232,-65884.212828
314.390180,43228.027013,7550.100608,-70940.443115
314.392672,-888.247130,2368.659014,-68795.375720
314.395185,-23538.548956,7402.059420,-68642.156621
314.397699,25315.043216,4737.318029,-69561.471218
314.400213,22798.343014,1628.453072,-75077.358804
314.402727,16876.695478,-3849.070898,-67876.061123
314.405241,-14063.912898,3404.947333,-68642.156621
314.407755,31236.690752,-3849.070898,-67109.965625
314.410269,24574.837274,3849.070898,-74464.482406
314.412783,5033.400406,-1036.288319,-72779.072310
314.415297,28275.866984,-2220.617826,-60827.982541
314.417811,-2960.823768,8290.306550,-73085.510509
314.420325,21169.889941,2516.700203,-74924.139704
314.422840,33161.226202,2072.576638,-63739.145434
314.425354,8586.388927,-1776.494261,-70327.566716
314.427868,444.123565,-5625.565159,-71553.319513
314.430382,25463.084405,2812.782580,-71400.100414
314.432896,20133.601622,6217.729913,-70787.224015
314.435410,-9030.512492,-5033.400406,-67876.061123
314.437924,-7105.977043,6365.771101,-72779.072310
314.440438,50778.127621,6217.729913,-69101.813920
314.442952,47225.139100,5773.606348,-64198.802732
314.445466,-47965.345042,-3256.906145,-69408.252119
314.447980,-49741.839302,13175.665768,-82738.313784
314.450494,66026.370026,-2220.617826,-66803.527426
314.453008,60992.969621,-1036.288319,-67722.842023
314.455522,-25463.084405,7254.018232,-74464.482406
314.458036,-47817.303853,148.041188,-68335.718422
314.460550,0.000000,3552.988522,-74311.263306
314.463065,50185.962868,7105.977043,-70480.785816
314.465579,30496.484810,296.082377,-71553.319513
314.468093,-15988.448347,740.205942,-68642.156621
314.470607,-32569.061448,10362.883188,-74464.482406
314.473121,23538.548956,3552.988522,-72472.634111
314.475635,34493.596897,740.205942,-71706.538613
314.478149,-17912.983796,6069.688724,-72932.291410
314.480663,10362.883188,4293.194464,-63432.707234
314.483177,16432.571912,592.164754,-75537.016103
314.485691,17024.736666,1480.411884,-67569.622924
314.488205,9622.677246,5773.606348,-64352.021832
314.490719,-21021.848753,-2220.617826,-79520.712692
314.493233,14508.036463,1924.535449,-70327.566716
314.495765,31384.731941,3256.906145,-66343.870127
314.498296,-17764.942608,5921.647536,-79214.274493
314.500828,-17912.983796,5773.606348,-77222.426198
314.503359,6957.935855,740.205942,-69714.690318
314.505891,13619.789333,1480.411884,-71400.100414
314.508422,15692.365970,-1036.288319,-70940.443115
314.510954,14952.160028,12435.459826,-71246.881314
314.513485,5477.523971,2516.700203,-71400.100414
314.516017,296.082377,11399.171507,-66956.746525
314.518549,-26647.413912,-148.041188,-79520.712692
314.521080,78313.788664,-148.041188,-58070.038748
314.523612,38490.708984,14804.118840,-77988.521696
314.526143,-9622.677246,3256.906145,-67569.622924
314.528675,-49149.674549,22650.301825,-78754.617194
314.531206,46929.056723,13027.624579,-62360.173537
314.533738,71355.852809,-8882.471304,-70940.443115
314.536269,18209.066173,9770.718434,-68488.937521
314.538801,-27831.743419,888.247130,-68642.156621
314.541332,-17024.736666,-444.123565,-73545.167808
314.543864,48113.386230,7994.224174,-67109.965625
314.546395,49445.756926,-148.041188,-73391.948708
314.548927,1628.453072,-2220.617826,-66956.746525
314.551458,-26499.372724,1776.494261,-72779.072310
314.553990,13915.871710,9918.759623,-75537.016103
314.556521,54775.239708,6661.853478,-65884.212828
314.559053,-9770.718434,8142.265362,-70174.347617
314.561584,-10955.047942,3997.112087,-69101.813920
314.564116,44708.438897,2368.659014,-71246.881314
314.566647,-296.082377,444.123565,-80746.465489
314.569179,32421.020260,-1184.329507,-59908.667944
314.571711,3997.112087,6069.688724,-66190.651027
314.574242,8142.265362,4589.276840,-74617.701505
314.576774,22058.137072,4145.153275,-72625.853210
314.579305,17616.901420,1184.329507,-70174.347617
314.581837,17616.901420,1776.494261,-66037.431928
314.584368,3256.906145,7846.182985,-72012.976812
314.586900,15544.324782,1332.370696,-74158.044206
314.589431,14656.077652,-444.123565,-64811.679131
314.591963,-8438.347739,9918.759623,-70480.785816
314.594494,13175.665768,2812.782580,-75843.454302
314.597039,74168.635388,9474.636058,-59755.448844
314.599584,-41747.615129,2960.823768,-75843.454302
314.602129,-43820.191766,3108.864956,-72625.853210
314.604675,39526.997303,-2220.617826,-74004.825107
314.607220,65138.122896,-2812.782580,-66650.308326
314.609765,19245.354492,5033.400406,-67109.965625
314.612310,-57143.898722,7994.224174,-72625.853210
314.614855,-42487.821071,2516.700203,-81665.780087
314.617400,56995.857534,7105.977043,-64198.802732
314.619945,38934.832549,7550.100608,-70327.566716
314.622490,-1480.411884,1036.288319,-71093.662214
314.625035,-36862.255912,5033.400406,-72319.415011
314.627580,6957.935855,8142.265362,-72319.415011
314.630125,48409.468607,7402.059420,-66956.746525
314.632670,21614.013506,5181.441594,-64352.021832
314.635215,-43079.985824,1036.288319,-80746.465489
314.637760,15988.448347,-2072.576638,-66343.870127
314.640305,16580.613101,7846.182985,-74464.482406
314.642850,8142.265362,6661.853478,-69101.813920
314.645396,-13767.830521,6809.894666,-73391.948708
314.647941,12583.501014,5921.647536,-66803.527426
314.650486,16432.571912,5181.441594,-73391.948708
314.653031,4737.318029,1184.329507,-75077.358804
314.655576,10807.006753,-2664.741391,-64811.679131
314.658121,-2220.617826,2516.700203,-69101.813920
314.660666,7105.977043,2960.823768,-72779.072310
314.663211,24870.919651,9030.512492,-73238.729609
314.665756,21614.013506,3108.864956,-68335.718422
314.668301,-21169.889941,11251.130318,-74617.701505
314.670846,-10807.006753,21021.848753,-70021.128517
314.673391,888.247130,2812.782580,-78141.740796
314.675936,101852.337619,3404.947333,-61134.420740
314.678481,15544.324782,4441.235652,-72472.634111
314.681026,-44708.438897,-3701.029710,-67722.842023
314.683571,-5033.400406,1924.535449,-69101.813920
314.686117,66618.534780,3108.864956,-67109.965625
314.688662,48409.468607,3108.864956,-75383.797003
314.691207,-444.123565,4293.194464,-63739.145434
314.693752,-37010.297100,3404.947333,-73391.948708
314.696297,7994.224174,4737.318029,-71553.319513
314.698794,59512.557737,8142.265362,-70634.004916
314.701292,48409.468607,2516.700203,-64964.898230
314.703789,-22058.137072,-444.123565,-67876.061123
314.706287,-10658.965565,4145.153275,-73391.948708
314.708784,10658.965565,8142.265362,-77528.864398
314.711282,19541.436869,2812.782580,-73545.167808
314.713779,-7254.018232,10066.800811,-65118.117330
314.716277,31532.773129,5033.400406,-62819.830836
314.718774,1332.370696,5329.482782,-83044.751983
314.721272,20725.766376,-1924.535449,-70174.347617
314.723769,36270.091158,-1184.329507,-58836.134246
314.726267,-4737.318029,8882.471304,-71246.881314
314.728764,6809.894666,-4441.235652,-78294.959896
314.731262,35529.885216,4293.194464,-64811.679131
314.733759,28423.908173,888.247130,-66650.308326
314.736257,-3108.864956,12139.377449,-66956.746525
314.738754,2368.659014,6365.771101,-72625.853210
314.741252,17912.983796,-17172.777854,-64811.679131
314.743749,-15396.283594,-444.123565,-77988.521696
314.746247,49297.715737,592.164754,-70174.347617
314.748744,19985.560434,16432.571912,-71246.881314
314.751242,-36270.091158,-3256.906145,-69561.471218
314.753739,-13175.665768,0.000000,-69101.813920
314.756237,18357.107362,-1776.494261,-84270.504780
314.758734,76981.417968,1924.535449,-60981.201641
314.761232,8142.265362,13027.624579,-65730.993728
314.763729,-57884.104664,5625.565159,-73391.948708
314.766227,-11547.212695,-1036.288319,-75996.673402
314.768724,45300.603650,11991.336260,-71706.538613
314.771222,41599.573940,-740.205942,-67109.965625
314.773719,-21762.054695,2812.782580,-74617.701505
314.776217,-25907.207970,5329.482782,-72319.415011
314.778714,20873.807564,1480.411884,-71093.662214
314.781212,49445.756926,9178.553681,-64045.583633
314.783709,-7550.100608,0.000000,-73851.606007
314.786207,-15692.365970,296.082377,-74924.139704
314.788704,15248.242405,5625.565159,-73545.167808
314.791202,-9622.677246,-3701.029710,-75690.235202
314.793699,21762.054695,888.247130,-62053.735338
314.796197,444.123565,10214.842000,-72932.291410
314.798716,-5773.606348,-3404.947333,-77988.521696
314.801235,32272.979071,7254.018232,-64658.460031
314.803753,6069.688724,8586.388927,-69867.909418
314.806272,-29460.196492,-1776.494261,-79367.493593
314.808791,8586.388927,-296.082377,-70787.224015
314.811310,33901.432144,1628.453072,-66803.527426
314.813829,22354.219448,14804.118840,-65884.212828
314.816347,-18949.272115,-888.247130,-77835.302597
314.818866,-19689.478057,17172.777854,-69255.033019
314.821385,10955.047942,-444.123565,-71859.757712
314.823904,73132.347070,-3849.070898,-72472.634111
314.826423,39082.873738,6217.729913,-68182.499322
314.828942,-29016.072926,10807.006753,-63739.145434
314.831460,-49149.674549,7105.977043,-77375.645298
314.833979,34937.720462,1924.535449,-69408.252119
314.836498,77129.459156,7698.141797,-69408.252119
314.839017,5181.441594,3701.029710,-65424.555529
314.841536,-44264.315332,3404.947333,-74311.263306
314.844055,6069.688724,11399.171507,-70940.443115
314.846573,55811.528027,10214.842000,-69408.252119
314.849092,43376.068201,2072.576638,-70021.128517
314.851611,-5033.400406,8290.306550,-64811.679131
314.854130,-18061.024985,10955.047942,-74464.482406
314.856649,-5625.565159,3108.864956,-80746.465489
314.859167,75649.047272,6661.853478,-57610.381450
314.861686,-11547.212695,6957.935855,-74924.139704
314.864205,10362.883188,1628.453072,-62973.049936
314.866724,23686.590144,4589.276840,-74464.482406
314.869243,23538.548956,5773.606348,-70787.224015
314.871762,34197.514520,3849.070898,-62666.611736
314.874280,-11843.295072,4145.153275,-73698.386908
314.876799,13619.789333,1480.411884,-72472.634111
314.879318,35381.844028,3108.864956,-65730.993728
314.881837,22502.260637,-1924.535449,-71400.100414
314.884356,-1332.370696,7846.182985,-74617.701505
314.886874,1184.329507,5477.523971,-66803.527426
314.889393,592.164754,-1628.453072,-69101.813920
314.891912,28571.949361,4589.276840,-74004.825107
314.894431,56699.775157,5477.523971,-68948.594820
314.896950,-21465.972318,-9770.718434,-66956.746525
314.899486,-61289.051998,3256.906145,-75383.797003
314.902022,14211.954086,11991.336260,-78294.959896
314.904558,87788.424721,10510.924376,-63585.926334
314.907094,35974.008781,6957.935855,-69408.252119
314.909630,-46929.056723,3256.906145,-74770.920605
314.912166,-40119.162056,3701.029710,-66956.746525
314.914702,10510.924376,4145.153275,-77835.302597
314.917238,55811.528027,-148.041188,-69561.471218
314.919773,4885.359217,3256.906145,-71093.662214
314.922309,-28868.031738,9030.512492,-70634.004916
314.924845,-7550.100608,5329.482782,-72166.195912
314.927381,51666.374752,2220.617826,-70174.347617
314.929917,-5033.400406,-888.247130,-77988.521696
314.932453,888.247130,2516.700203,-63585.926334
314.934989,11695.253884,9326.594869,-69255.033019
314.937525,-2960.823768,444.123565,-79367.493593
314.940061,11547.212695,-888.247130,-68795.375720
314.942597,16432.571912,4589.276840,-62666.611736
314.945133,3552.988522,2812.782580,-73698.386908
314.947669,-6957.935855,5181.441594,-81052.903688
314.950205,35529.885216,3404.947333,-60521.544342
314.952741,-15396.283594,6069.688724,-72472.634111
314.955277,-5773.606348,4589.276840,-75077.358804
314.957813,25463.084405,8586.388927,-70174.347617
314.960349,27091.537477,14804.118840,-68948.594820
314.962885,-12435.459826,11843.295072,-75383.797003
314.965421,-14656.077652,13915.871710,-64505.240932
314.967957,-9918.759623,-7550.100608,-76762.768900
314.970493,101260.172866,5921.647536,-65271.336430
314.973029,11251.130318,-1924.535449,-71859.757712
314.975565,-45300.603650,-1036.288319,-65577.774629
314.978101,-27387.619854,3849.070898,-75996.673402
314.980637,38046.585419,3701.029710,-74004.825107
314.983173,86900.177591,6217.729913,-64045.583633
314.985709,6809.894666,2072.576638,-67416.403824
314.988245,-44412.356520,2960.823768,-72625.853210
314.990781,5181.441594,6661.853478,-70327.566716
314.993316,51814.415940,8438.347739,-70021.128517
314.995852,47225.139100,1480.411884,-68948.594820
314.998388,-18061.024985,-2516.700203,-66650.308326
315.000938,8734.430116,7105.977043,-66803.527426
315.003487,4589.276840,7994.224174,-79673.931792
315.006036,63509.669824,2220.617826,-59602.229744
315.008586,-27091.537477,7105.977043,-76456.330700
315.011135,23686.590144,2368.659014,-61287.639840
315.013684,9326.594869,-1184.329507,-79980.369991
315.016234,37454.420665,3849.070898,-64811.679131
315.018783,14508.036463,6809.894666,-70634.004916
315.021332,444.123565,4589.276840,-69714.690318
315.023882,24574.837274,888.247130,-69714.690318
315.026431,30940.608376,8290.306550,-71246.881314
315.028980,19541.436869,1776.494261,-68795.375720
315.031530,-3552.988522,-1036.288319,-66803.527426
315.034079,-23834.631332,3404.947333,-73238.729609
315.036628,25759.166782,5625.565159,-71400.100414
315.039178,62177.299128,-296.082377,-70327.566716
315.041727,28423.908173,-1036.288319,-63739.145434
315.044276,-91045.330866,-1924.535449,-79061.055394
315.046826,-7402.059420,9474.636058,-72319.415011
315.049375,83347.189069,7105.977043,-64658.460031
315.051924,47077.097911,3701.029710,-68335.718422
315.054474,-22946.384202,3404.947333,-70480.785816
315.057023,-66470.493592,4885.359217,-71246.881314
315.059572,148.041188,-2072.576638,-76762.768900
315.062122,60252.763679,4145.153275,-68488.937521
315.064671,41895.656317,888.247130,-66803.527426
315.067220,-39378.956114,2220.617826,-76149.892501
315.069770,-30200.402434,7846.182985,-75383.797003
315.072319,33457.308578,9770.718434,-71859.757712
315.074868,41303.491564,7994.224174,-67263.184724
315.077418,592.164754,-1332.370696,-61440.858940
315.079967,-444.123565,7402.059420,-68642.156621
315.082516,11843.295072,4293.194464,-77375.645298
315.085066,1036.288319,444.123565,-74158.044206
315.087615,14656.077652,1924.535449,-61747.297139
315.090164,-1776.494261,7402.059420,-72319.415011
315.092714,1776.494261,2960.823768,-77375.645298
315.095263,12583.501014,4885.359217,-70787.224015
315.097812,-1776.494261,888.247130,-70634.004916
315.100362,14508.036463,3108.864956,-66956.746525
315.102920,27683.702231,9030.512492,-69561.471218
315.105479,6957.935855,-4885.359217,-76149.892501
315.108037,5773.606348,-11843.295072,-60981.201641
315.110596,-43079.985824,4145.153275,-79214.274493
315.113154,39082.873738,1480.411884,-73238.729609
315.115712,89120.795417,11103.089130,-67263.184724
315.118271,3404.947333,-2664.741391,-66497.089226
315.120829,-65138.122896,3108.864956,-72932.291410
315.123388,-2664.741391,-8734.430116,-70634.004916
315.125946,64397.916954,6661.853478,-70634.004916
315.128505,49889.880491,7846.182985,-66956.746525
315.131063,-27979.784608,3552.988522,-68948.594820
315.133622,-30348.443622,3552.988522,-74158.044206
315.136180,17616.901420,7994.224174,-72779.072310
315.138739,80090.282924,296.082377,-63739.145434
315.141297,9770.718434,1628.453072,-73085.510509
315.143856,-39378.956114,1332.370696,-76149.892501
315.146414,19541.436869,10658.965565,-69101.813920
315.148972,43079.985824,6217.729913,-65424.555529
315.151531,1480.411884,-2220.617826,-71246.881314
315.154089,8290.306550,4293.194464,-70327.566716
315.156648,-6069.688724,6365.771101,-80440.027290
315.159206,26647.413912,148.041188,-69408.252119
315.161765,32717.102636,8290.306550,-61747.297139
315.164323,-5921.647536,1924.535449,-74770.920605
315.166882,14656.077652,-444.123565,-71093.662214
315.169440,34345.555709,3108.864956,-69408.252119
315.171999,30348.443622,3849.070898,-67416.403824
315.174557,-5773.606348,5477.523971,-71859.757712
315.177116,-25167.002028,5477.523971,-71706.538613
315.179674,23390.507767,5625.565159,-66803.527426
315.182232,49445.756926,148.041188,-72779.072310
315.184791,-8734.430116,3256.906145,-72166.195912
315.187349,-71059.770432,-2516.700203,-71246.881314
315.189908,-2664.741391,14063.912898,-73851.606007
315.192466,75204.923707,1036.288319,-70634.004916
315.195025,58920.392983,4885.359217,-68488.937521
315.197583,-9030.512492,14952.160028,-68029.280222
315.200142,-76833.376780,-2220.617826,-74311.263306
315.202700,-22946.384202,-2516.700203,-80899.684589
315.205266,73132.347070,11103.089130,-63279.488135
315.207831,31384.731941,6957.935855,-66497.089226
315.210396,-39675.038491,5773.606348,-74311.263306
315.212962,-24426.796086,2516.700203,-72472.634111
315.215527,48557.509795,9030.512492,-71553.319513
315.218093,13767.830521,1924.535449,-75537.016103
315.220658,-3552.988522,148.041188,-60521.544342
315.223223,-3849.070898,12879.583391,-69867.909418
315.225789,29164.114115,3552.988522,-72319.415011
315.228354,-9178.553681,-148.041188,-78141.740796
315.230920,11991.336260,3404.947333,-63892.364533
315.233485,-7550.100608,1924.535449,-73085.510509
315.236050,8438.347739,7254.018232,-73391.948708
315.238616,5921.647536,3256.906145,-71706.538613
315.241181,4145.153275,1924.535449,-70021.128517
315.243747,2072.576638,6513.812290,-75843.454302
315.246312,30644.525999,7550.100608,-66037.431928
315.248877,9030.512492,5329.482782,-69255.033019
315.251443,-30348.443622,30200.402434,-73238.729609
315.254008,-9178.553681,4441.235652,-75077.358804
315.256574,89416.877794,-4589.276840,-61900.516238
315.259139,31976.896694,6365.771101,-76762.768900
315.261704,-29756.278868,592.164754,-72319.415011
315.264270,-24574.837274,8438.347739,-72625.853210
315.266835,31384.731941,12139.377449,-77835.302597
315.269401,94598.319388,9770.718434,-62053.735338
315.271966,19393.395680,5033.400406,-65730.993728
315.274531,-47817.303853,6513.812290,-76456.330700
315.277097,-592.164754,5329.482782,-69561.471218
315.279662,49741.839302,7105.977043,-67416.403824
315.282228,45004.521274,3849.070898,-73851.606007
315.284793,-6661.853478,6365.771101,-68182.499322
315.287363,2960.823768,11695.253884,-67416.403824
315.289933,45004.521274,9326.594869,-65271.336430
315.292503,8290.306550,9622.677246,-72472.634111
315.295074,22502.260637,6513.812290,-65577.774629
315.297644,-19541.436869,5033.400406,-79520.712692
315.300214,34789.679274,4589.276840,-67109.965625
315.302784,34493.596897,5477.523971,-64811.679131
315.305354,-4589.276840,1924.535449,-75537.016103
315.307924,11843.295072,2072.576638,-70174.347617
315.310495,32569.061448,6217.729913,-69101.813920
315.313065,21614.013506,19837.519246,-72166.195912
315.315635,8734.430116,740.205942,-64045.583633
315.318205,-20577.725188,4145.153275,-72012.976812
315.320775,21465.972318,6957.935855,-71553.319513
315.323345,73576.470635,-5921.647536,-68795.375720
315.325916,6513.812290,-9918.759623,-66343.870127
315.328486,-70171.523302,3552.988522,-71400.100414
315.331056,-20133.601622,16136.489536,-78754.617194
315.333626,74908.841330,-3849.070898,-68642.156621
315.336196,55515.445650,3997.112087,-69561.471218
315.338766,-3256.906145,4145.153275,-66803.527426
315.341337,-64397.916954,-3701.029710,-72779.072310
315.343907,-1628.453072,1480.411884,-77835.302597
315.346477,72984.305881,5773.606348,-64352.021832
315.349047,24278.754898,888.247130,-70021.128517
315.351617,-30644.525999,-3997.112087,-72166.195912
315.354187,-21169.889941,2072.576638,-72012.976812
315.356758,54035.033766,-2072.576638,-64811.679131
315.359328,8142.265362,-7550.100608,-79827.150892
315.361898,-12731.542202,7105.977043,-68488.937521
315.364468,-10066.800811,12139.377449,-70327.566716
315.367038,31532.773129,5329.482782,-68029.280222
315.369608,18949.272115,592.164754,-66343.870127
315.372179,-24278.754898,-3256.906145,-79520.712692
315.374749,9918.759623,-592.164754,-66803.527426
315.377319,13767.830521,2812.782580,-70174.347617
315.379889,-4885.359217,5921.647536,-76915.987999
315.382459,24870.919651,-2812.782580,-67722.842023
315.385029,14508.036463,7550.100608,-72625.853210
315.387600,8734.430116,4885.359217,-69255.033019
315.390173,-11547.212695,-444.123565,-68948.594820
315.392748,-18061.024985,148.041188,-74770.920605
315.395322,82903.065504,1776.494261,-62973.049936
315.397897,39823.079680,10955.047942,-76456.330700
315.400471,-11991.336260,-7105.977043,-63739.145434
315.403046,-60400.804867,19985.560434,-79980.369991
315.405620,29016.072926,2516.700203,-63126.269035
315.408194,74316.676577,-6365.771101,-68948.594820
315.410769,43228.027013,4885.359217,-70021.128517
315.413343,-24426.796086,-4441.235652,-68335.718422
315.415918,-31828.855506,-444.123565,-75077.358804
315.418492,27387.619854,5773.606348,-70174.347617
315.421067,63361.628635,9326.594869,-68029.280222
315.423641,-4589.276840,888.247130,-73698.386908
315.426216,-9178.553681,4145.153275,-64658.460031
315.428790,17912.983796,6809.894666,-71859.757712
315.431365,24278.754898,-1628.453072,-75996.673402
315.433939,29312.155303,888.247130,-64964.898230
315.436514,-27831.743419,11103.089130,-78754.617194
315.439088,29904.320057,-1332.370696,-65577.774629
315.441662,37750.503042,1776.494261,-65424.555529
315.444237,2812.782580,2664.741391,-76303.111601
315.446811,5625.565159,-2072.576638,-70327.566716
315.449386,50926.168810,6809.894666,-60827.982541
315.451960,4737.318029,-148.041188,-77988.521696
315.454535,-3404.947333,3552.988522,-67569.622924
315.457109,-11103.089130,8586.388927,-68948.594820
315.459684,36566.173535,2812.782580,-67876.061123
315.462258,67654.823099,1036.288319,-69255.033019
315.464833,-22502.260637,-1184.329507,-74617.701505
315.467407,-41155.450375,-14804.118840,-60368.325242
315.469982,-15248.242405,11547.212695,-81206.122788
315.472556,78609.871040,6809.894666,-72166.195912
315.475130,34049.473332,-6957.935855,-70940.443115
315.477705,-17912.983796,12731.542202,-63432.707234
315.480279,-75797.088461,7254.018232,-79980.369991
315.482854,8882.471304,-7550.100608,-76609.549800
315.485428,78905.953417,8290.306550,-61900.516238
315.488003,7698.141797,7846.182985,-75690.235202
315.490577,-27683.702231,-888.247130,-68488.937521
315.493108,-33901.432144,3108.864956,-79061.055394
315.495638,60696.887244,9326.594869,-64352.021832
315.498168,32569.061448,5625.565159,-67876.061123
315.500699,-36566.173535,9178.553681,-72779.072310
315.503229,11547.212695,4589.276840,-69101.813920
315.505759,11695.253884,1776.494261,-75843.454302
315.508290,15100.201217,-740.205942,-69714.690318
315.510820,6513.812290,3108.864956,-66190.651027
315.513350,-16284.530724,4737.318029,-73698.386908
315.515881,7254.018232,444.123565,-71706.538613
315.518411,23390.507767,8586.388927,-68182.499322
315.520941,18209.066173,8142.265362,-75077.358804
315.523472,17024.736666,1776.494261,-69255.033019
315.526002,-19541.436869,-1480.411884,-69561.471218
315.528533,-31680.814318,8586.388927,-79061.055394
315.531063,29460.196492,-2516.700203,-77528.864398
315.533593,104813.161387,10214.842000,-58376.476948
315.536124,-4737.318029,1924.535449,-67876.061123
315.538654,-57439.981099,-4737.318029,-74311.263306
315.541184,-2960.823768,2960.823768,-67722.842023
315.543715,60252.763679,1480.411884,-68029.280222
315.546245,54775.239708,3256.906145,-72472.634111
315.548775,9178.553681,2960.823768,-61900.516238
315.551306,-41007.409187,8290.306550,-73545.167808
315.553836,19985.560434,3849.070898,-70480.785816
315.556366,51370.292375,-148.041188,-73851.606007
315.558897,37602.461854,2220.617826,-64505.240932
315.561427,-15988.448347,4293.194464,-66956.746525
315.563958,-11843.295072,4441.235652,-76303.111601
315.566488,37306.379477,296.082377,-73545.167808
315.569018,31680.814318,2072.576638,-67876.061123
315.571549,-15248.242405,6365.771101,-74311.263306
315.574079,26055.249158,5033.400406,-64352.021832
315.576609,25759.166782,3849.070898,-69867.909418
315.579140,25018.960840,3849.070898,-69714.690318
315.581670,8586.388927,12731.542202,-70174.347617
315.584200,26943.496289,12139.377449,-67569.622924
315.586731,16580.613101,-2516.700203,-70634.004916
315.589261,-25018.960840,-592.164754,-76149.892501
315.591791,13323.706956,7254.018232,-64658.460031
315.594334,24870.919651,-1480.411884,-73698.386908
315.596876,71503.893997,16284.530724,-63585.926334
315.599419,-32717.102636,-888.247130,-75383.797003
315.601961,-53294.827824,-8734.430116,-69867.909418
315.604503,23686.590144,14211.954086,-78601.398095
315.607046,88084.507098,2960.823768,-63432.707234
315.609588,21614.013506,11103.089130,-72319.415011
315.612131,-42339.779882,1184.329507,-70940.443115
315.614673,-51074.209998,4737.318029,-74158.044206
315.617215,22354.219448,2664.741391,-73391.948708
315.619758,69283.276171,6513.812290,-65884.212828
315.622300,2812.782580,-148.041188,-72932.291410
315.624843,-24722.878463,-592.164754,-67109.965625
315.627385,-10066.800811,592.164754,-74311.263306
315.629927,37602.461854,-1332.370696,-72625.853210
315.632470,1480.411884,-2812.782580,-72625.853210
315.635012,-37898.544230,15692.365970,-74158.044206
315.637555,27979.784608,3552.988522,-64045.583633
315.640097,23242.466579,1924.535449,-69714.690318
315.642639,-4441.235652,6069.688724,-78448.178995
315.645182,-5625.565159,3997.112087,-67722.842023
315.647724,6513.812290,12731.542202,-65730.993728
315.650267,-28868.031738,3997.112087,-86109.133975
315.652809,48261.427418,1480.411884,-61900.516238
315.655351,31088.649564,17320.819043,-70021.128517
315.657894,-25167.002028,-444.123565,-69867.909418
315.660436,-30348.443622,14952.160028,-73238.729609
315.662978,888.247130,5181.441594,-76762.768900
315.665521,121541.815676,-1628.453072,-53626.684860
315.668063,6661.853478,5477.523971,-81206.122788
315.670606,-33457.308578,3701.029710,-63432.707234
315.673148,-45448.644839,13027.624579,-77528.864398
315.675690,35233.802839,3701.029710,-69867.909418
315.678233,92525.742750,-7105.977043,-66956.746525
315.680775,28571.949361,4885.359217,-67109.965625
315.683318,-44116.274143,0.000000,-73085.510509
315.685860,-8142.265362,-2516.700203,-73545.167808
315.688402,59068.434172,10362.883188,-66803.527426
315.690945,48261.427418,5329.482782,-71093.662214
315.693487,-3552.988522,6365.771101,-61900.516238
315.696040,-41451.532752,2812.782580,-83964.066581
315.698592,48853.592172,13767.830521,-67416.403824
315.701145,48853.592172,1924.535449,-62053.735338
315.703697,-20873.807564,1480.411884,-78601.398095
315.706250,13175.665768,9474.636058,-67263.184724
315.708802,23686.590144,2368.659014,-70021.128517
315.711355,28868.031738,4441.235652,-68335.718422
315.713907,9474.636058,7846.182985,-72166.195912
315.716460,30940.608376,11103.089130,-64964.898230
315.719012,10807.006753,-1924.535449,-71706.538613
315.721565,-13027.624579,-3256.906145,-69714.690318
315.724118,-3404.947333,14952.160028,-73085.510509
315.726670,34049.473332,3552.988522,-72932.291410
315.729223,67950.905476,4885.359217,-60981.201641
315.731775,-48853.592172,16580.613101,-80899.684589
315.734328,-42339.779882,1776.494261,-65271.336430
315.736880,33309.267390,-2072.576638,-77988.521696
315.739433,90601.207301,5033.400406,-62360.173537
315.741985,6069.688724,-5181.441594,-76456.330700
315.744538,-40119.162056,-6069.688724,-65884.212828
315.747090,-46484.933158,6513.812290,-74311.263306
315.749643,22650.301825,-8734.430116,-78294.959896
315.752195,71059.770432,4737.318029,-64198.802732
315.754748,3552.988522,-148.041188,-72166.195912
315.757300,-40563.285622,-444.123565,-73851.606007
315.759853,18357.107362,10510.924376,-64964.898230
315.762405,55515.445650,12139.377449,-66650.308326
315.764958,-6069.688724,2220.617826,-71553.319513
315.767510,-38342.667796,3552.988522,-76762.768900
315.770063,14211.954086,2516.700203,-69408.252119
315.772615,35825.967593,4145.153275,-64964.898230
315.775168,-2664.741391,-2220.617826,-78294.959896
315.777721,-9918.759623,-4293.194464,-70021.128517
315.780273,-4145.153275,-2220.617826,-71093.662214
315.782826,11251.130318,-2664.741391,-73391.948708
315.785378,42783.903448,2812.782580,-70174.347617
315.787931,25907.207970,2368.659014,-67569.622924
315.790483,-40711.326810,1036.288319,-70940.443115
315.793036,-37306.379477,-4441.235652,-77988.521696
315.795588,70763.688055,296.082377,-66190.651027
315.798147,88824.713040,12583.501014,-68335.718422
315.800707,-19393.395680,-5625.565159,-66343.870127
315.803266,-60696.887244,-3849.070898,-72012.976812
315.805825,1480.411884,-1480.411884,-70634.004916
315.808384,70319.564490,4441.235652,-68642.156621
315.810943,68691.111418,8586.388927,-70940.443115
315.813503,-7105.977043,2220.617826,-63432.707234
315.816062,-51222.251186,7698.141797,-80286.808190
315.818621,42635.862259,8882.471304,-64352.021832
315.821180,66322.452403,4441.235652,-66956.746525
315.823739,17468.860231,1628.453072,-66037.431928
315.826299,-51074.209998,-1628.453072,-78754.617194
315.828858,26943.496289,-2812.782580,-72472.634111
315.831417,53146.786636,-2664.741391,-65884.212828
315.833976,2220.617826,592.164754,-70480.785816
315.836535,-1184.329507,6809.894666,-69101.813920
315.839095,3701.029710,3404.947333,-75537.016103
315.841654,34789.679274,-1776.494261,-67263.184724
315.844213,27683.702231,10510.924376,-67876.061123
315.846772,36862.255912,6069.688724,-63279.488135
315.849332,-10362.883188,-1036.288319,-75996.673402
315.851891,-15248.242405,-1480.411884,-70021.128517
315.854450,-148.041188,8586.388927,-72319.415011
315.857009,40267.203245,-3404.947333,-72472.634111
315.859568,69579.358548,13323.706956,-59908.667944
315.862128,-44708.438897,-740.205942,-76915.987999
315.864687,-50334.004056,-6217.729913,-68488.937521
315.867246,18061.024985,-2220.617826,-82431.875585
315.869805,99039.555040,7254.018232,-56384.628653
315.872364,3849.070898,8734.430116,-76303.111601
315.874924,-48705.550984,3404.947333,-72166.195912
315.877483,-39823.079680,6661.853478,-70480.785816
315.880042,20281.642811,-6809.894666,-78601.398095
315.882601,71651.935186,2812.782580,-63279.488135
315.885160,4441.235652,2960.823768,-69408.252119
315.887720,-37306.379477,1332.370696,-74464.482406
315.890279,-20577.725188,3997.112087,-80593.246390
315.892838,69283.276171,5033.400406,-62206.954438
315.895397,10510.924376,2220.617826,-63739.145434
315.897956,-43228.027013,-4885.359217,-76609.549800
315.900521,-9622.677246,-592.164754,-78754.617194
315.903086,53146.786636,10214.842000,-59449.010645
315.905651,13027.624579,3849.070898,-71400.100414
315.908215,-30200.402434,4145.153275,-76609.549800
315.910780,-14804.118840,3404.947333,-73851.606007
315.913345,25611.125593,-2072.576638,-68948.594820
315.915910,44856.480085,9030.512492,-71553.319513
315.918475,12435.459826,-1184.329507,-69255.033019
315.921039,-45004.521274,10807.006753,-72625.853210
315.923604,-20873.807564,6365.771101,-81818.999186
315.926169,122133.980430,5625.565159,-55158.875856
315.928734,34937.720462,7698.141797,-75843.454302
315.931298,-45596.686027,1924.535449,-67416.403824
315.933863,-59364.516548,16728.654289,-79061.055394
315.936428,38194.626607,8438.347739,-65730.993728
315.938993,101556.255242,-5329.482782,-64658.460031
315.941558,28571.949361,2368.659014,-72625.853210
315.944122,-34049.473332,5033.400406,-65730.993728
315.946687,-41451.532752,7698.141797,-76609.549800
315.949252,62621.422693,1776.494261,-64198.802732
315.951817,67062.658345,7846.182985,-65577.774629
315.954381,-38342.667796,-1480.411884,-77069.207099
315.956946,-22946.384202,2960.823768,-74158.044206
315.959511,50482.045244,9178.553681,-69714.690318
315.962076,39378.956114,7846.182985,-66650.308326
315.964641,0.000000,7105.977043,-69714.690318
315.967205,-14359.995275,3552.988522,-74464.482406
315.969770,31532.773129,1332.370696,-64964.898230
315.972335,23538.548956,5033.400406,-73851.606007
315.974900,37158.338288,8438.347739,-66650.308326
315.977464,2220.617826,-2220.617826,-70327.566716
315.980029,-32421.020260,-4145.153275,-72932.291410
315.982594,296.082377,11251.130318,-72166.195912
315.985159,59660.598925,8142.265362,-67722.842023
315.987724,67210.699534,10807.006753,-62053.735338
315.990288,-55663.486838,5329.482782,-79980.369991
315.992853,-43524.109390,-8290.306550,-62360.173537
315.995418,11547.212695,6513.812290,-81359.341888
315.997983,88972.754228,1036.288319,-65118.117330
316.000547,40415.244433,3256.906145,-68642.156621
316.003074,-33901.432144,5625.565159,-64811.679131
316.005600,-62473.381505,9030.512492,-75537.016103
316.008127,13767.830521,-1480.411884,-80899.684589
316.010653,87788.424721,3108.864956,-57610.381450
316.013179,6365.771101,5625.565159,-69561.471218
316.015706,-47669.262665,2812.782580,-75383.797003
316.018232,2516.700203,-3256.906145,-73391.948708
316.020759,24130.713709,444.123565,-82125.437386
316.023285,41599.573940,3108.864956,-58376.476948
316.025811,-37750.503042,12879.583391,-64505.240932
316.028338,3552.988522,-444.123565,-73238.729609
316.030864,12435.459826,1184.329507,-77988.521696
316.033391,31088.649564,10955.047942,-64505.240932
316.035917,-19689.478057,1776.494261,-72166.195912
316.038443,-9474.636058,3701.029710,-72779.072310
316.040970,17172.777854,296.082377,-74158.044206
316.043496,55219.363273,8882.471304,-68029.280222
316.046023,-888.247130,5329.482782,-69714.690318
316.048549,-62325.340316,19097.313304,-77222.426198
316.051075,-888.247130,5773.606348,-76149.892501
316.053602,117692.744778,9030.512492,-56997.505051
316.056128,12879.583391,-2072.576638,-71553.319513
316.058655,-65286.164084,-3256.906145,-72319.415011
316.061181,-38638.750172,9326.594869,-76762.768900
316.063707,46188.850781,15840.407159,-70634.004916
316.066234,109254.397039,10066.800811,-62053.735338
316.068760,23390.507767,592.164754,-65884.212828
316.071287,-58772.351795,6809.894666,-74158.044206
316.073813,-11251.130318,10362.883188,-74004.825107
316.076339,59512.557737,9030.512492,-66343.870127
316.078866,52110.498317,5181.441594,-70787.224015
316.081392,-21465.972318,3256.906145,-64811.679131
316.083919,-6365.771101,6069.688724,-72012.976812
316.086445,52702.663070,6513.812290,-72319.415011
316.088971,10066.800811,6069.688724,-74924.139704
316.091498,25611.125593,444.123565,-59755.448844
316.094024,-13619.789333,6957.935855,-70634.004916
316.096551,8882.471304,888.247130,-77528.864398
316.099077,46484.933158,592.164754,-69714.690318
316.101603,51518.333563,7254.018232,-62360.173537
316.104142,-23390.507767,5477.523971,-72932.291410
316.106681,-25463.084405,-2220.617826,-70787.224015
316.109219,49593.798114,6661.853478,-69714.690318
316.111758,75649.047272,-6217.729913,-66190.651027
316.114296,-1924.535449,2812.782580,-71400.100414
316.116835,-90453.166112,-8142.265362,-74004.825107
316.119373,-13915.871710,11547.212695,-75077.358804
316.121912,77869.665098,3552.988522,-73851.606007
316.124451,65286.164084,5033.400406,-64964.898230
316.126989,1332.370696,10362.883188,-68948.594820
316.129528,-90453.166112,11547.212695,-77375.645298
316.132066,-148.041188,-3701.029710,-77069.207099
316.134605,87788.424721,5773.606348,-62513.392637
316.137144,13619.789333,592.164754,-73238.729609
316.139682,-20133.601622,-2664.741391,-65271.336430
316.142221,-16284.530724,296.082377,-71400.100414
316.144759,25315.043216,-11251.130318,-79367.493593
316.147298,37602.461854,5033.400406,-62666.611736
316.149836,-22502.260637,6957.935855,-71706.538613
316.152375,-5921.647536,-888.247130,-69255.033019
316.154914,7994.224174,3552.988522,-74617.701505
316.157452,30200.402434,-148.041188,-71093.662214
316.159991,-24130.713709,-9622.677246,-74004.825107
316.162529,9622.677246,-2664.741391,-65271.336430
316.165068,13767.830521,9326.594869,-73391.948708
316.167607,42191.738694,5181.441594,-70940.443115
316.170145,2960.823768,-10214.842000,-69101.813920
316.172684,-48557.509795,10214.842000,-72166.195912
316.175222,-6069.688724,3701.029710,-78907.836294
316.177761,95338.525330,3404.947333,-65730.993728
316.180300,48409.468607,1480.411884,-66190.651027
316.182838,-52110.498317,-4441.235652,-67722.842023
316.185377,-25611.125593,-2072.576638,-73391.948708
316.187915,31088.649564,12287.418637,-77375.645298
316.190454,117988.827155,13175.665768,-58682.915147
316.192992,8882.471304,-296.082377,-67876.061123
316.195531,-53146.786636,-2072.576638,-72166.195912
316.198070,-10807.006753,9622.677246,-76762.768900
316.200608,66914.617157,4589.276840,-61134.420740
316.203147,55219.363273,8734.430116,-67569.622924
316.205695,-37898.544230,5033.400406,-75537.016103
316.208244,-18209.066173,2072.576638,-69714.690318
316.210793,73428.429446,3108.864956,-66037.431928
316.213341,8882.471304,1776.494261,-75690.235202
316.215890,3701.029710,2220.617826,-65118.117330
316.218439,-17024.736666,8142.265362,-72319.415011
316.220987,45744.727216,-6069.688724,-66497.089226
316.223536,38342.667796,6513.812290,-74464.482406
316.226085,32717.102636,6217.729913,-67569.622924
316.228633,-44560.397708,-8882.471304,-73545.167808
316.231182,-27535.661042,10658.965565,-69255.033019
316.233731,49149.674549,17912.983796,-77375.645298
316.236279,88528.630663,14952.160028,-56384.628653
316.238828,-64693.999331,-7550.100608,-79214.274493
316.241377,-78165.747475,296.082377,-69561.471218
316.243925,27387.619854,8438.347739,-79980.369991
316.246474,107181.820402,1480.411884,-64198.802732
316.249023,34789.679274,1036.288319,-67876.061123
316.251571,-40267.203245,7846.182985,-67722.842023
316.254120,-96522.854837,5921.647536,-81052.903688
316.256669,28868.031738,2220.617826,-77069.207099
316.259217,98595.431474,12287.418637,-57763.600549
316.261766,-5181.441594,-9918.759623,-75077.358804
316.264315,-26499.372724,0.000000,-64658.460031
316.266863,-7550.100608,5625.565159,-78294.959896
316.269412,53738.951389,-148.041188,-71553.319513
316.271961,-148.041188,3108.864956,-66037.431928
316.274509,-12435.459826,2368.659014,-68182.499322
316.277058,-15396.283594,5181.441594,-76456.330700
316.279607,28868.031738,4441.235652,-72625.853210
316.282155,27535.661042,8142.265362,-67109.965625
316.284704,-6069.688724,5033.400406,-67109.965625
316.287253,-39823.079680,-3701.029710,-85496.257577
316.289801,58032.145853,5477.523971,-64658.460031
316.292350,13323.706956,12879.583391,-71093.662214
316.294899,-24426.796086,18505.148550,-65577.774629
316.297447,-41303.491564,8586.388927,-85496.257577
316.299996,108958.314662,3404.947333,-56537.847752
316.302545,38342.667796,4737.318029,-75537.016103
316.305093,-30792.567187,-3552.988522,-65884.212828
316.307650,-63953.793389,13915.871710,-78754.617194
316.310207,25759.166782,12287.418637,-69867.909418
316.312764,111030.891300,-5477.523971,-57150.724151
316.315320,22502.260637,5329.482782,-69101.813920
316.317877,-56107.610404,-740.205942,-75230.577904
316.320434,-3256.906145,3997.112087,-69561.471218
316.322991,40415.244433,6069.688724,-72779.072310
316.325547,75501.006084,6513.812290,-60368.325242
316.328104,-28275.866984,0.000000,-74617.701505
316.330661,-20725.766376,1332.370696,-75690.235202
316.333218,47521.221476,10955.047942,-70480.785816
316.335774,34641.638086,3849.070898,-68029.280222
316.338331,8734.430116,3108.864956,-69714.690318
316.340888,-16876.695478,9326.594869,-72319.415011
316.343445,39526.997303,7254.018232,-68029.280222
316.346001,54183.074954,15544.324782,-66956.746525
316.348558,14656.077652,11251.130318,-70021.128517
316.351115,-38490.708984,-2960.823768,-71706.538613
316.353672,-14359.995275,6069.688724,-69714.690318
316.356229,51370.292375,6513.812290,-77528.864398
316.358785,77869.665098,30052.361245,-59142.572446
316.361342,-27979.784608,-1036.288319,-69408.252119
316.363899,-97707.184344,-740.205942,-79673.931792
316.366456,19245.354492,10362.883188,-75690.235202
316.369012,111326.973677,1628.453072,-57763.600549
316.371569,15100.201217,4145.153275,-70327.566716
316.374126,-53146.786636,3701.029710,-72012.976812
316.376683,-67950.905476,8142.265362,-73698.386908
316.379239,35677.926404,7550.100608,-79061.055394
316.381796,82458.941939,3256.906145,-62206.954438
316.384353,-18505.148550,-2220.617826,-76149.892501
316.386910,-40415.244433,10066.800811,-72472.634111
316.389472,21762.054695,11843.295072,-70021.128517
316.392035,66470.493592,4145.153275,-69408.252119
316.394597,-45300.603650,1184.329507,-75690.235202
316.397160,-16284.530724,2516.700203,-72012.976812
316.399723,21614.013506,11991.336260,-66190.651027
316.402286,33013.185013,5329.482782,-75077.358804
316.404849,-10658.965565,3552.988522,-73238.729609
316.407412,-18653.189738,2072.576638,-71246.881314
316.409975,16136.489536,5921.647536,-72166.195912
316.412537,40859.367998,7698.141797,-68488.937521
316.415100,3108.864956,10362.883188,-71246.881314
316.417663,-26499.372724,6809.894666,-68488.937521
316.420226,296.082377,9030.512492,-75383.797003
316.422789,66766.575968,12731.542202,-72012.976812
316.425352,18505.148550,-7550.100608,-59602.229744
316.427915,-66026.370026,12583.501014,-74311.263306
316.430478,-6957.935855,-7254.018232,-71400.100414
316.433040,46632.974346,296.082377,-74158.044206
316.435603,91045.330866,13175.665768,-63892.364533
316.438166,-7994.224174,4293.194464,-70327.566716
316.440729,-45744.727216,-592.164754,-71246.881314
316.443292,9770.718434,8142.265362,-73698.386908
316.445855,70023.482113,15544.324782,-61287.639840
316.448418,26203.290347,6957.935855,-64658.460031
316.450981,-33161.226202,5033.400406,-73238.729609
316.453543,12583.501014,0.000000,-77835.302597
316.456106,42191.738694,5773.606348,-69255.033019
316.458669,41599.573940,-1628.453072,-61594.078039
316.461232,-27535.661042,-1036.288319,-77069.207099
316.463795,14656.077652,296.082377,-66190.651027
316.466358,47077.097911,6661.853478,-70327.566716
316.468921,41599.573940,1036.288319,-66343.870127
316.471484,-31236.690752,-1628.453072,-76609.549800
316.474046,-20725.766376,9770.718434,-68795.375720
316.476609,52850.704259,11103.089130,-70021.128517
316.479172,78313.788664,16432.571912,-64352.021832
316.481735,-46336.891969,-2812.782580,-79214.274493
316.484298,-46484.933158,-14063.912898,-60215.106143
316.486861,-3552.988522,15840.407159,-81359.341888
316.489424,93413.989880,3404.947333,-67416.403824
316.491991,47817.303853,5921.647536,-66956.746525
316.494559,-27535.661042,6217.729913,-69255.033019
316.497126,-88084.507098,3256.906145,-75843.454302
316.499693,12139.377449,-5181.441594,-79520.712692
316.502261,79942.241736,444.123565,-63585.926334
316.504828,8734.430116,6365.771101,-63126.269035
316.507396,-37602.461854,2960.823768,-75843.454302
316.509963,-26795.455100,4145.153275,-81359.341888
316.512531,62917.505070,9918.759623,-60368.325242
316.515098,888.247130,5477.523971,-71093.662214
316.517666,-17320.819043,-2368.659014,-72625.853210
316.520233,-15396.283594,4737.318029,-74158.044206
316.522801,40563.285622,6217.729913,-64658.460031
316.525368,-7402.059420,4885.359217,-77222.426198
316.527935,-13175.665768,4293.194464,-74924.139704
316.530503,22798.343014,2960.823768,-68642.156621
316.533070,23982.672521,7698.141797,-67569.622924
316.535638,-25611.125593,14804.118840,-78294.959896
316.538205,-23834.631332,4737.318029,-73698.386908
316.540773,75501.006084,1332.370696,-62973.049936
316.543340,37898.544230,8882.471304,-77528.864398
316.545908,-2368.659014,-7994.224174,-64658.460031
316.548475,-54627.198520,14211.954086,-74464.482406
316.551043,18653.189738,-4737.318029,-64045.583633
316.553610,74612.758954,-7105.977043,-69714.690318
316.556177,40859.367998,20133.601622,-70787.224015
316.558745,-23242.466579,-1480.411884,-67569.622924
316.561312,-22058.137072,148.041188,-69255.033019
316.563880,18801.230927,13175.665768,-76149.892501
316.566447,83791.312634,5477.523971,-59295.791545
316.569015,-22354.219448,3997.112087,-76762.768900
316.571582,-23390.507767,6809.894666,-66650.308326
316.574150,34493.596897,-3849.070898,-75383.797003
316.576717,31828.855506,-1628.453072,-75077.358804
316.579285,-148.041188,-1184.329507,-72012.976812
316.581852,-888.247130,1628.453072,-62360.173537
316.584419,26351.331535,5181.441594,-70634.004916
316.586987,43524.109390,-2812.782580,-73391.948708
316.589554,10066.800811,8290.306550,-66956.746525
316.592122,-39230.914926,8586.388927,-72319.415011
316.594693,6661.853478,-9326.594869,-68795.375720
316.597264,69431.317360,2960.823768,-72625.853210
316.599835,43968.232955,13471.748144,-63892.364533
316.602406,-55663.486838,3256.906145,-70940.443115
316.604977,-59216.475360,11103.089130,-76915.987999
316.607548,58032.145853,8734.430116,-77222.426198
316.610119,70467.605678,-4293.194464,-66497.089226
316.612690,8142.265362,11103.089130,-63432.707234
316.615261,-92081.619185,4737.318029,-80593.246390
316.617832,-17764.942608,-2664.741391,-72319.415011
316.620403,67950.905476,14804.118840,-70634.004916
316.622974,33161.226202,-4737.318029,-68948.594820
316.625545,1776.494261,-592.164754,-62819.830836
316.628116,-69875.440925,10066.800811,-85343.038477
316.630687,53146.786636,-2220.617826,-65271.336430
316.633258,18505.148550,3701.029710,-78448.178995
316.635829,11251.130318,6217.729913,-59295.791545
316.638400,-31236.690752,19245.354492,-79214.274493
316.640971,35085.761651,4737.318029,-64045.583633
316.643542,-740.205942,1036.288319,-80899.684589
316.646113,2664.741391,3849.070898,-65577.774629
316.648684,5625.565159,1924.535449,-72319.415011
316.651255,18801.230927,-888.247130,-70787.224015
316.653826,2960.823768,2516.700203,-69867.909418
316.656397,-21317.931130,-3849.070898,-76303.111601
316.658968,48261.427418,4885.359217,-71093.662214
316.661539,47373.180288,12139.377449,-70634.004916
316.664110,-2220.617826,-4145.153275,-63432.707234
316.666681,-37750.503042,296.082377,-72625.853210
316.669252,-6513.812290,4885.359217,-73391.948708
316.671823,67950.905476,5477.523971,-68795.375720
316.674394,60548.846056,10955.047942,-68029.280222
316.676965,-2368.659014,2368.659014,-62206.954438
316.679536,-49445.756926,-592.164754,-80593.246390
316.682107,26943.496289,4589.276840,-68488.937521
316.684678,72688.223504,888.247130,-58989.353346
316.687249,22502.260637,7402.059420,-63432.707234
316.689820,-25759.166782,5477.523971,-78907.836294
316.692391,18505.148550,1628.453072,-73698.386908
316.694962,49889.880491,5181.441594,-63279.488135
316.697534,6809.894666,4145.153275,-73238.729609
316.700107,2368.659014,-5625.565159,-67722.842023
316.702680,24870.919651,2368.659014,-69101.813920
316.705253,12139.377449,2368.659014,-81665.780087
316.707826,40267.203245,9918.759623,-59449.010645
316.710399,-37454.420665,5033.400406,-73698.386908
316.712971,22798.343014,11991.336260,-71859.757712
316.715544,83199.147881,9474.636058,-64964.898230
316.718117,-13323.706956,8882.471304,-72166.195912
316.720690,-49297.715737,-9326.594869,-68795.375720
316.723263,-23982.672521,18949.272115,-75843.454302
316.725836,62769.463882,5329.482782,-72166.195912
316.728408,67802.864287,7994.224174,-66497.089226
316.730981,-19245.354492,740.205942,-73698.386908
316.733554,-62325.340316,-5773.606348,-72625.853210
316.736127,-10214.842000,3108.864956,-72319.415011
316.738700,74612.758954,12139.377449,-66343.870127
316.741273,14211.954086,6217.729913,-67263.184724
316.743845,-45744.727216,3552.988522,-78141.740796
316.746418,-4441.235652,3849.070898,-74004.825107
316.748991,44856.480085,13175.665768,-68948.594820
316.751564,-1036.288319,6513.812290,-69101.813920
316.754137,-13175.665768,6513.812290,-66956.746525
316.756710,-14656.077652,8586.388927,-79214.274493
316.759282,19097.313304,-1332.370696,-72779.072310
316.761855,44264.315332,9474.636058,-58376.476948
316.764428,-24574.837274,14063.912898,-70480.785816
316.767001,9474.636058,-2664.741391,-73238.729609
316.769574,1332.370696,-2368.659014,-72012.976812
316.772147,4589.276840,16876.695478,-66956.746525
316.774719,-12435.459826,-296.082377,-79520.712692
316.777292,73428.429446,148.041188,-66497.089226
316.779865,35677.926404,11103.089130,-65577.774629
316.782438,-41599.573940,2812.782580,-73391.948708
316.785011,-26351.331535,20133.601622,-74004.825107
316.787584,41747.615129,7550.100608,-63892.364533
316.790156,89120.795417,-2516.700203,-64045.583633
316.792729,7254.018232,5921.647536,-68488.937521
316.795302,-48113.386230,740.205942,-78141.740796
316.797875,15248.242405,8290.306550,-68642.156621
316.800450,34641.638086,296.082377,-75537.016103
316.803024,64397.916954,2072.576638,-59755.448844
316.805599,-40563.285622,11843.295072,-75077.358804
316.808174,3552.988522,-2664.741391,-75690.235202
316.810748,32717.102636,9030.512492,-75690.235202
316.813323,59364.516548,7846.182985,-57150.724151
316.815898,-14211.954086,2220.617826,-75537.016103
316.818472,-1184.329507,3552.988522,-68182.499322
316.821047,27091.537477,3256.906145,-78907.836294
316.823621,43820.191766,5477.523971,-58376.476948
316.826196,-33013.185013,7698.141797,-73238.729609
316.828771,-16580.613101,2368.659014,-75843.454302
316.831345,72096.058751,1480.411884,-63739.145434
316.833920,28423.908173,13323.706956,-72012.976812
316.836495,-51666.374752,-444.123565,-73851.606007
316.839069,-29608.237680,10362.883188,-68182.499322
316.841644,27683.702231,1036.288319,-78141.740796
316.844219,78757.912229,1924.535449,-66650.308326
316.846793,-9770.718434,14804.118840,-72625.853210
316.849368,-56699.775157,5181.441594,-72472.634111
316.851943,-26055.249158,-1184.329507,-75996.673402
316.854517,65138.122896,11547.212695,-67569.622924
316.857092,19097.313304,-592.164754,-76915.987999
316.859667,14359.995275,1184.329507,-58223.257848
316.862241,-53590.910201,18209.066173,-83810.847481
316.864816,40711.326810,3849.070898,-65884.212828
316.867391,13915.871710,2072.576638,-72166.195912
316.869965,-9474.636058,1184.329507,-69714.690318
316.872540,-10955.047942,15100.201217,-72625.853210
316.875115,-3997.112087,-592.164754,-76456.330700
316.877689,38786.791361,6217.729913,-63892.364533
316.880264,-3701.029710,7105.977043,-72472.634111
316.882838,11547.212695,2960.823768,-70940.443115
316.885413,-3701.029710,3552.988522,-70634.004916
316.887988,-20577.725188,8586.388927,-73391.948708
316.890562,28275.866984,-1480.411884,-72012.976812
316.893137,84383.477388,7698.141797,-63279.488135
316.895712,7105.977043,2368.659014,-70787.224015
316.898286,-41007.409187,1036.288319,-69867.909418
316.900861,-9770.718434,7402.059420,-74004.825107
316.903399,51074.209998,-1332.370696,-67876.061123
316.905937,85271.724518,3701.029710,-64658.460031
316.908475,-4145.153275,10807.006753,-69101.813920
316.911013,-40415.244433,-740.205942,-73698.386908
316.913551,14656.077652,4145.153275,-71246.881314
316.916089,75649.047272,6513.812290,-57610.381450
316.918627,-11399.171507,-592.164754,-82738.313784
316.921165,6661.853478,2220.617826,-63432.707234
316.923703,7105.977043,4293.194464,-63432.707234
316.926241,23390.507767,-1036.288319,-74158.044206
316.928779,19097.313304,6661.853478,-69867.909418
316.931317,-1628.453072,10214.842000,-69255.033019
316.933855,39378.956114,7550.100608,-62206.954438
316.936393,9770.718434,0.000000,-79214.274493
316.938931,15396.283594,-3552.988522,-64811.679131
316.941469,-24426.796086,6661.853478,-72779.072310
316.944007,24426.796086,10658.965565,-68029.280222
316.946545,52110.498317,9030.512492,-73698.386908
316.949083,-15692.365970,-4589.276840,-76609.549800
316.951621,-43820.191766,-4145.153275,-69561.471218
316.954159,13619.789333,8882.471304,-69561.471218
316.956696,61437.093186,2072.576638,-72625.853210
316.959234,41451.532752,4293.194464,-67876.061123
316.961772,-13175.665768,5181.441594,-65730.993728
316.964310,-79646.159359,4737.318029,-82738.313784
316.966848,18949.272115,-7254.018232,-69255.033019
316.969386,64842.040519,10066.800811,-68335.718422
316.971924,16432.571912,8438.347739,-64658.460031
316.974462,-37898.544230,9918.759623,-76609.549800
316.977000,6809.894666,3701.029710,-75690.235202
316.979538,14211.954086,-296.082377,-70940.443115
316.982076,24130.713709,-3849.070898,-57457.162350
316.984614,-39378.956114,5625.565159,-82738.313784
316.987152,12139.377449,-1628.453072,-70787.224015
316.989690,25611.125593,-4737.318029,-68488.937521
316.992228,13027.624579,10362.883188,-67722.842023
316.994766,-888.247130,3256.906145,-74617.701505
316.997304,7105.977043,-3997.112087,-70940.443115
316.999842,-9474.636058,-2220.617826,-70021.128517
317.002380,-6069.688724,296.082377,-74464.482406
317.004926,74908.841330,-3404.947333,-67876.061123
317.007473,39378.956114,10214.842000,-63739.145434
317.010019,-46336.891969,-2960.823768,-76609.549800
317.012565,-30940.608376,3552.988522,-74311.263306
317.015112,35529.885216,5625.565159,-65884.212828
317.017658,86308.012837,-444.123565,-64964.898230
317.020205,14804.118840,2960.823768,-76762.768900
317.022751,-13323.706956,-4293.194464,-60981.201641
317.025297,-26351.331535,2220.617826,-79061.055394
317.027844,37602.461854,-2368.659014,-70634.004916
317.030390,60400.804867,6365.771101,-61134.420740
317.032936,-41155.450375,12583.501014,-74158.044206
317.035483,28275.866984,3404.947333,-63279.488135
317.038029,10658.965565,10807.006753,-82278.656485
317.040575,46484.933158,-2960.823768,-60521.544342
317.043122,-1776.494261,-444.123565,-71553.319513
317.045668,11547.212695,14508.036463,-66956.746525
317.048215,14211.954086,-888.247130,-79367.493593
317.050761,30348.443622,1036.288319,-62206.954438
317.053307,-19097.313304,8438.347739,-73238.729609
317.055854,7402.059420,5625.565159,-71093.662214
317.058400,59068.434172,13027.624579,-65730.993728
317.060946,-20725.766376,-4293.194464,-77375.645298
317.063493,-26795.455100,-11103.089130,-62973.049936
317.066039,-14508.036463,8882.471304,-79673.931792
317.068585,63213.587447,2368.659014,-66650.308326
317.071132,42339.779882,2664.741391,-70174.347617
317.073678,-3997.112087,14804.118840,-66037.431928
317.076224,-78905.953417,5921.647536,-82278.656485
317.078771,19393.395680,-148.041188,-66650.308326
317.081317,51666.374752,3552.988522,-71400.100414
317.083864,-1628.453072,2220.617826,-74004.825107
317.086410,-39823.079680,2664.741391,-77988.521696
317.088956,14656.077652,17024.736666,-67109.965625
317.091503,26499.372724,7550.100608,-72012.976812
317.094049,-6513.812290,5329.482782,-72166.195912
317.096595,-8438.347739,1332.370696,-71400.100414
317.099142,-296.082377,-2368.659014,-70327.566716
317.101688,7698.141797,3404.947333,-75690.235202
317.104234,28868.031738,4737.318029,-66190.651027
317.106788,4293.194464,-888.247130,-74158.044206
317.109342,-1036.288319,3701.029710,-68335.718422
317.111896,-12879.583391,10214.842000,-71400.100414
317.114449,11399.171507,10807.006753,-78448.178995
317.117003,88380.589475,6217.729913,-63279.488135
317.119557,16284.530724,5921.647536,-66343.870127
317.122110,-53294.827824,888.247130,-75077.358804
317.124664,-33605.349767,16876.695478,-77069.207099
317.127218,62769.463882,-3256.906145,-59908.667944
317.129771,77869.665098,-1332.370696,-70940.443115
317.132325,9326.594869,16728.654289,-69255.033019
317.134879,-41599.573940,1776.494261,-75690.235202
317.137432,19541.436869,6217.729913,-71553.319513
317.139986,77277.500345,10510.924376,-58070.038748
317.142540,13175.665768,-1332.370696,-73698.386908
317.145094,-36418.132346,-5033.400406,-79061.055394
317.147647,41895.656317,6365.771101,-60215.106143
317.150201,29164.114115,4441.235652,-73545.167808
317.152755,15248.242405,4589.276840,-73545.167808
317.155308,6513.812290,-5329.482782,-65577.774629
317.157862,20429.683999,14063.912898,-68029.280222
317.160416,23242.466579,5033.400406,-73391.948708
317.162969,-10807.006753,592.164754,-71859.757712
317.165523,740.205942,740.205942,-69561.471218
317.168077,41895.656317,9474.636058,-71246.881314
317.170631,23094.425390,14508.036463,-71400.100414
317.173184,-29756.278868,-592.164754,-69561.471218
317.175738,-30052.361245,4293.194464,-74004.825107
317.178292,29460.196492,7550.100608,-71706.538613
317.180845,55367.404462,4145.153275,-72319.415011
317.183399,14656.077652,10955.047942,-68795.375720
317.185953,-35381.844028,16432.571912,-69255.033019
317.188506,-148.041188,9770.718434,-68029.280222
317.191060,38638.750172,1776.494261,-73545.167808
317.193614,36566.173535,3404.947333,-66037.431928
317.196167,-32569.061448,0.000000,-77835.302597
317.198721,592.164754,6217.729913,-70021.128517
317.201275,33753.390955,8882.471304,-64658.460031
317.203829,-4145.153275,-4441.235652,-74464.482406
317.206382,-26055.249158,6365.771101,-76149.892501
317.208941,11695.253884,-1924.535449,-67722.842023
317.211500,17468.860231,-1332.370696,-70480.785816
317.214058,-49297.715737,3404.947333,-68642.156621
317.216617,-1036.288319,-4293.194464,-74924.139704
317.219176,15692.365970,4293.194464,-66497.089226
317.221735,-20873.807564,8586.388927,-73851.606007
317.224293,10362.883188,5477.523971,-73238.729609
317.226852,71651.935186,2220.617826,-66803.527426
317.229411,30348.443622,7550.100608,-68948.594820
317.231970,-35381.844028,-5329.482782,-70940.443115
317.234528,-41599.573940,2516.700203,-75843.454302
317.237087,34493.596897,6069.688724,-69867.909418
317.239646,81718.735997,3108.864956,-65118.117330
317.242204,-13915.871710,6957.935855,-79520.712692
317.244763,-22798.343014,-4589.276840,-64964.898230
317.247322,3404.947333,12435.459826,-71093.662214
317.249881,27535.661042,3108.864956,-78754.617194
317.252439,60992.969621,-1332.370696,-60981.201641
317.254998,-28275.866984,14508.036463,-70327.566716
317.257557,24870.919651,-4293.194464,-64045.583633
317.260116,11843.295072,3552.988522,-81818.999186
317.262674,51074.209998,8882.471304,-60061.887043
317.265233,-1332.370696,3849.070898,-72932.291410
317.267792,4589.276840,2960.823768,-71706.538613
317.270350,37602.461854,3404.947333,-67263.184724
317.272909,-21465.972318,11103.089130,-76762.768900
317.275468,25611.125593,2664.741391,-62360.173537
317.278027,29016.072926,-444.123565,-72472.634111
317.280585,14508.036463,7105.977043,-74311.263306
317.283144,-31828.855506,-10807.006753,-69561.471218
317.285703,-16432.571912,1036.288319,-69714.690318
317.288262,20577.725188,9770.718434,-78754.617194
317.290820,69875.440925,1628.453072,-60827.982541
317.293379,-10658.965565,-1480.411884,-74464.482406
317.295938,-34789.679274,4737.318029,-66803.527426
317.298496,-13915.871710,5625.565159,-76456.330700
317.301055,42931.944636,2812.782580,-72166.195912
317.303614,15544.324782,1184.329507,-73851.606007
317.306173,5625.565159,4589.276840,-63892.364533
317.308731,-22354.219448,14211.954086,-73391.948708
317.311294,15840.407159,-1036.288319,-76149.892501
317.313857,20577.725188,13323.706956,-68488.937521
317.316420,2812.782580,7994.224174,-66803.527426
317.318983,-32272.979071,3108.864956,-80286.808190
317.321547,-444.123565,-1036.288319,-76609.549800
317.324110,34345.555709,-3552.988522,-63585.926334
317.326673,9326.594869,3404.947333,-72472.634111
317.329236,-11843.295072,-4589.276840,-74004.825107
317.331799,-21910.095883,13175.665768,-72472.634111
317.334362,34345.555709,18653.189738,-68948.594820
317.336925,78313.788664,7402.059420,-68182.499322
317.339488,14508.036463,-1924.535449,-66803.527426
317.342051,-46336.891969,10362.883188,-71400.100414
317.344614,-38194.626607,20133.601622,-78907.836294
317.347177,70763.688055,5477.523971,-61900.516238
317.349740,84235.436200,-8438.347739,-64658.460031
317.352303,-26203.290347,1332.370696,-72779.072310
317.354866,-35974.008781,-6957.935855,-72779.072310
317.357429,13471.748144,8290.306550,-78754.617194
317.359992,56551.733969,6809.894666,-65118.117330
317.362555,56995.857534,-6957.935855,-55312.094956
317.365118,-61733.175563,5033.400406,-89326.735067
317.367681,43079.985824,2516.700203,-62053.735338
317.370244,50778.127621,9030.512492,-63432.707234
317.372807,12287.418637,4145.153275,-71706.538613
317.375370,4589.276840,3552.988522,-68795.375720
317.377933,15248.242405,3256.906145,-70327.566716
317.380496,21614.013506,-5773.606348,-66650.308326
317.383059,-18949.272115,1628.453072,-76915.987999
317.385622,29164.114115,10510.924376,-70480.785816
317.388185,58624.310606,13175.665768,-60827.982541
317.390748,-27979.784608,296.082377,-74311.263306
317.393311,-43079.985824,0.000000,-74770.920605
317.395874,6217.729913,9178.553681,-73545.167808
317.398437,62917.505070,9030.512492,-65577.774629
317.401000,15100.201217,592.164754,-71553.319513
317.403563,-19393.395680,3849.070898,-66037.431928
317.406126,-67654.823099,2664.741391,-85955.914876
317.408689,49741.839302,-7994.224174,-64352.021832
317.411252,38194.626607,11695.253884,-69255.033019
317.413819,-28127.825796,-7550.100608,-80746.465489
317.416385,4589.276840,-2220.617826,-67876.061123
317.418952,22650.301825,10510.924376,-63892.364533
317.421518,-4441.235652,7402.059420,-77375.645298
317.424085,-17616.901420,8734.430116,-75690.235202
317.426651,6809.894666,3256.906145,-70634.004916
317.429217,17616.901420,148.041188,-68795.375720
317.431784,-740.205942,0.000000,-74311.263306
317.434350,11547.212695,592.164754,-72932.291410
317.436917,13619.789333,8586.388927,-66803.527426
317.439483,-25018.960840,8438.347739,-76762.768900
317.442049,-3997.112087,592.164754,-78141.740796
317.444616,96818.937214,3997.112087,-58989.353346
317.447182,22946.384202,9178.553681,-70021.128517
317.449749,-36418.132346,4737.318029,-70634.004916
317.452315,-28127.825796,4441.235652,-71553.319513
317.454881,59660.598925,-10510.924376,-63739.145434
317.457448,75352.964896,-6217.729913,-71246.881314
317.460014,-3108.864956,8882.471304,-70021.128517
317.462581,-36270.091158,-888.247130,-70634.004916
317.465147,16136.489536,4589.276840,-67109.965625
317.467713,50185.962868,5773.606348,-67722.842023
317.470280,18061.024985,-5625.565159,-75537.016103
317.472846,-20725.766376,7846.182985,-69714.690318
317.475413,24574.837274,6217.729913,-68335.718422
317.477979,45596.686027,5625.565159,-55924.971354
317.480545,-6809.894666,7846.182985,-79673.931792
317.483112,26943.496289,23094.425390,-60368.325242
317.485678,21762.054695,-740.205942,-66343.870127
317.488245,1036.288319,-5625.565159,-73085.510509
317.490811,-19689.478057,5329.482782,-77069.207099
317.493378,50037.921679,3404.947333,-64352.021832
317.495944,31828.855506,29460.196492,-68335.718422
317.498510,-16432.571912,-6809.894666,-71553.319513
317.501077,-50334.004056,-148.041188,-76149.892501
317.503643,18061.024985,6809.894666,-72166.195912
317.506210,54923.280896,1924.535449,-69408.252119
317.508776,6069.688724,-5921.647536,-73085.510509
317.511342,-23686.590144,296.082377,-67876.061123
317.513909,-38786.791361,2960.823768,-75996.673402
317.516478,37306.379477,-2516.700203,-70940.443115
317.519048,28719.990550,2812.782580,-73851.606007
317.521617,13619.789333,-2220.617826,-63892.364533
317.524186,-24574.837274,-2960.823768,-70480.785816
317.526756,8734.430116,1184.329507,-74311.263306
317.529325,22650.301825,3108.864956,-72166.195912
317.531895,9474.636058,6809.894666,-72779.072310
317.534464,17912.983796,6217.729913,-63585.926334
317.537033,-25759.166782,3552.988522,-81665.780087
317.539603,34049.473332,2812.782580,-65271.336430
317.542172,10066.800811,5033.400406,-72932.291410
317.544742,-9178.553681,-6217.729913,-73698.386908
317.547311,-13471.748144,4293.194464,-68795.375720
317.549880,43524.109390,5773.606348,-67109.965625
317.552450,58772.351795,5033.400406,-75230.577904
317.555019,15692.365970,4589.276840,-64658.460031
317.557589,-49149.674549,6809.894666,-72012.976812
317.560158,-5033.400406,16284.530724,-72166.195912
317.562727,53442.869012,3108.864956,-75383.797003
317.565297,104517.079010,-148.041188,-52554.151163
317.567866,-45300.603650,2220.617826,-80593.246390
317.570436,-29904.320057,-1480.411884,-70940.443115
317.573005,46929.056723,-2516.700203,-61287.639840
317.575574,8290.306550,0.000000,-82585.094684
317.578144,46781.015534,-2072.576638,-62053.735338
317.580713,-22798.343014,14063.912898,-71553.319513
317.583283,21317.931130,-1628.453072,-70327.566716
317.585852,48261.427418,6661.853478,-63126.269035
317.588421,16876.695478,17912.983796,-70787.224015
317.590991,26795.455100,9770.718434,-62819.830836
317.593560,-16136.489536,-7402.059420,-77069.207099
317.596130,11991.336260,8586.388927,-65884.212828
317.598699,1184.329507,2664.741391,-76609.549800
317.601269,64545.958142,4145.153275,-66803.527426
317.603838,5921.647536,13175.665768,-68948.594820
317.606407,-36418.132346,-4441.235652,-68488.937521
317.608977,-33309.267390,4737.318029,-79827.150892
317.611546,49149.674549,296.082377,-74004.825107
317.614116,50482.045244,5625.565159,-65577.774629
317.616685,-30792.567187,-888.247130,-74311.263306
317.619221,-47521.221476,-5625.565159,-75690.235202
317.621757,18949.272115,3108.864956,-69561.471218
317.624293,47077.097911,-3108.864956,-73085.510509
317.626828,-10362.883188,3997.112087,-75996.673402
317.629364,9770.718434,6217.729913,-63279.488135
317.631900,4589.276840,9474.636058,-71706.538613
317.634436,-17024.736666,0.000000,-83964.066581
317.636972,24278.754898,8290.306550,-62973.049936
317.639508,4737.318029,3701.029710,-67109.965625
317.642044,592.164754,4885.359217,-75843.454302
317.644580,20429.683999,592.164754,-65118.117330
317.647115,4885.359217,-444.123565,-77222.426198
317.649651,15692.365970,9918.759623,-64352.021832
317.652187,-30496.484810,12731.542202,-78294.959896
317.654723,8290.306550,-3849.070898,-74311.263306
317.657259,96670.896025,-1776.494261,-58529.696047
317.659795,13619.789333,13915.871710,-73391.948708
317.662331,-37306.379477,9622.677246,-69561.471218
317.664867,-31236.690752,10214.842000,-78907.836294
317.667402,82755.024316,-888.247130,-57303.943250
317.669938,67950.905476,11103.089130,-72625.853210
317.672474,-10955.047942,8734.430116,-69714.690318
317.675010,-28868.031738,-1036.288319,-69408.252119
317.677546,5181.441594,4293.194464,-76303.111601
317.680082,79646.159359,14211.954086,-57303.943250
317.682618,-444.123565,-444.123565,-76762.768900
317.685154,-7402.059420,-3256.906145,-70480.785816
317.687689,-2664.741391,8586.388927,-81512.560987
317.690225,64249.875766,8142.265362,-57303.943250
317.692761,8734.430116,11991.336260,-72166.195912
317.695297,5773.606348,2812.782580,-70327.566716
317.697833,3404.947333,3701.029710,-75383.797003
317.700369,11547.212695,8586.388927,-64811.679131
317.702905,11843.295072,-7994.224174,-72012.976812
317.705441,50334.004056,-4737.318029,-72319.415011
317.707976,8142.265362,11547.212695,-68795.375720
317.710512,-47225.139100,-3108.864956,-75077.358804
317.713048,-15100.201217,5329.482782,-72166.195912
317.715584,44264.315332,7698.141797,-70940.443115
317.718120,35381.844028,3552.988522,-70327.566716
317.720664,-19245.354492,-148.041188,-71859.757712
317.723209,-49001.633360,-4293.194464,-75843.454302
317.725753,18209.066173,4737.318029,-68488.937521
317.728298,38934.832549,7105.977043,-74617.701505
317.730842,29312.155303,888.247130,-61900.516238
317.733386,-22650.301825,1480.411884,-72779.072310
317.735931,-7994.224174,2960.823768,-72779.072310
317.738475,15692.365970,1036.288319,-73851.606007
317.741020,11991.336260,2812.782580,-70174.347617
317.743564,14211.954086,9326.594869,-64658.460031
317.746108,-39082.873738,296.082377,-87028.448573
317.748653,36270.091158,3108.864956,-59755.448844
317.751197,6217.729913,8142.265362,-75996.673402
317.753742,4589.276840,-1184.329507,-71246.881314
317.756286,-9622.677246,3552.988522,-69255.033019
317.758830,21614.013506,-1480.411884,-71246.881314
317.761375,62769.463882,3701.029710,-73085.510509
317.763919,26351.331535,11103.089130,-63126.269035
317.766464,-42783.903448,4885.359217,-73391.948708
317.769008,-25907.207970,15396.283594,-77835.302597
317.771553,76537.294403,6957.935855,-63585.926334
317.774097,80238.324113,1480.411884,-64964.898230
317.776641,-29904.320057,4441.235652,-75077.358804
317.779186,-29904.320057,1332.370696,-72012.976812
317.781730,31088.649564,5625.565159,-66803.527426
317.784275,63213.587447,7994.224174,-62513.392637
317.786819,592.164754,-3404.947333,-81818.999186
317.789363,4589.276840,2368.659014,-62206.954438
317.791908,21169.889941,-3108.864956,-69867.909418
317.794452,21465.972318,-3701.029710,-75690.235202
317.796997,-2664.741391,-1628.453072,-80286.808190
317.799541,41155.450375,148.041188,-56997.505051
317.802092,-26647.413912,11103.089130,-78754.617194
317.804644,592.164754,1036.288319,-69867.909418
317.807195,29608.237680,8438.347739,-72779.072310
317.809747,69727.399736,13471.748144,-62513.392637
317.812298,-44708.438897,4589.276840,-75537.016103
317.814850,-39675.038491,2220.617826,-71246.881314
317.817401,13323.706956,-888.247130,-73698.386908
317.819952,61881.216751,1036.288319,-69255.033019
317.822504,-3552.988522,9326.594869,-75383.797003
317.825055,-25463.084405,2812.782580,-65118.117330
317.827607,-46781.015534,14656.077652,-80593.246390
317.830158,47225.139100,7105.977043,-69255.033019
317.832709,20873.807564,1332.370696,-76915.987999
317.835261,34641.638086,-592.164754,-53320.246661
317.837812,-76537.294403,7550.100608,-90705.706963
317.840364,36418.132346,-1776.494261,-63279.488135
317.842915,28423.908173,-1036.288319,-68948.594820
317.845467,-4589.276840,-11251.130318,-72166.195912
317.848018,-11103.089130,15692.365970,-74311.263306
317.850569,-1924.535449,4737.318029,-72625.853210
317.853121,32124.937883,444.123565,-66803.527426
317.855672,14359.995275,6069.688724,-68948.594820
317.858224,-18209.066173,6661.853478,-74311.263306
317.860775,-13027.624579,-6217.729913,-75690.235202
317.863326,85715.848084,1036.288319,-61747.297139
317.865878,36122.049970,2368.659014,-73085.510509
317.868429,-28423.908173,0.000000,-68642.156621
317.870981,-34789.679274,8438.347739,-69867.909418
317.873532,28719.990550,-444.123565,-58070.038748
317.876083,70467.605678,2516.700203,-73391.948708
317.878635,13471.748144,7254.018232,-67569.622924
317.881186,-44560.397708,-1480.411884,-69561.471218
317.883738,2220.617826,-1776.494261,-77682.083497
317.886289,57884.104664,13471.748144,-67569.622924
317.888841,30348.443622,148.041188,-62666.611736
317.891392,-4589.276840,4293.194464,-71246.881314
317.893943,-5181.441594,11251.130318,-79673.931792
317.896495,52702.663070,1036.288319,-62513.392637
317.899046,27831.743419,9918.759623,-66343.870127
317.901598,12583.501014,8142.265362,-67876.061123
317.904154,-2960.823768,-5329.482782,-72472.634111
317.906711,-1924.535449,5773.606348,-70634.004916
317.909268,29016.072926,4589.276840,-69714.690318
317.911825,53442.869012,6661.853478,-66803.527426
317.914381,-24130.713709,-9474.636058,-73391.948708
317.916938,-42635.862259,-1480.411884,-71706.538613
317.919495,5921.647536,12435.459826,-74004.825107
317.922052,55071.322085,-3108.864956,-72012.976812
317.924608,36270.091158,-888.247130,-68795.375720
317.927165,-25759.166782,11695.253884,-66650.308326
317.929722,-48113.386230,5921.647536,-81512.560987
317.932279,37750.503042,444.123565,-68488.937521
317.934835,47077.097911,9622.677246,-64045.583633
317.937392,-24278.754898,-5477.523971,-76456.330700
317.939949,-16284.530724,-3256.906145,-75843.454302
317.942506,5921.647536,9622.677246,-70634.004916
317.945062,44856.480085,8882.471304,-59142.572446
317.947619,-27831.743419,11991.336260,-79673.931792
317.950176,592.164754,2072.576638,-73391.948708
317.952733,14804.118840,-2220.617826,-63432.707234
317.955289,-740.205942,8290.306550,-75077.358804
317.957846,18209.066173,7254.018232,-67109.965625
317.960403,-28868.031738,13619.789333,-77988.521696
317.962960,15100.201217,-2516.700203,-72319.415011
317.965516,79053.994606,5033.400406,-63585.926334
317.968073,21614.013506,5773.606348,-69867.909418
317.970630,-26203.290347,-8586.388927,-69255.033019
317.973187,-33901.432144,3552.988522,-73698.386908
317.975743,42931.944636,11103.089130,-66037.431928
317.978300,64842.040519,-1184.329507,-75077.358804
317.980857,-14804.118840,4589.276840,-73391.948708
317.983414,-29904.320057,-444.123565,-68948.594820
317.985970,9030.512492,-2368.659014,-74924.139704
317.988527,76389.253214,8142.265362,-57916.819649
317.991084,4293.194464,2368.659014,-76456.330700
317.993641,5921.647536,2516.700203,-65577.774629
317.996197,13915.871710,7550.100608,-72166.195912
317.998754,34641.638086,5033.400406,-70174.347617
318.001311,24130.713709,444.123565,-70480.785816
318.003868,12731.542202,6069.688724,-65730.993728
318.006429,11843.295072,5033.400406,-66037.431928
318.008990,-16136.489536,-4589.276840,-77222.426198
318.011551,49149.674549,592.164754,-68335.718422
318.014112,50185.962868,8734.430116,-64505.240932
318.016673,-39675.038491,-4441.235652,-71093.662214
318.019235,-43672.150578,2516.700203,-78141.740796
318.021796,30496.484810,1480.411884,-72012.976812
318.024357,66026.370026,2072.576638,-66650.308326
318.026918,-3256.906145,0.000000,-75383.797003
318.029479,-21465.972318,740.205942,-65730.993728
318.032040,-8290.306550,7105.977043,-71553.319513
318.034601,39526.997303,5625.565159,-71246.881314
318.037163,36714.214723,2516.700203,-66956.746525
318.039724,-40415.244433,-1184.329507,-78448.178995
318.042285,-1776.494261,-1776.494261,-68642.156621
318.044846,23834.631332,1776.494261,-70634.004916
318.047407,296.082377,1480.411884,-75230.577904
318.049968,13027.624579,2220.617826,-67416.403824
318.052529,0.000000,4441.235652,-68795.375720
318.055091,-10510.924376,5181.441594,-77528.864398
318.057652,22206.178260,-1924.535449,-70327.566716
318.060213,-8142.265362,12139.377449,-71706.538613
318.062774,-10066.800811,-3552.988522,-74617.701505
318.065335,27239.578666,4145.153275,-77528.864398
318.067896,64249.875766,13915.871710,-64505.240932
318.070457,5329.482782,740.205942,-64658.460031
318.073019,-36270.091158,4885.359217,-70634.004916
318.075580,-2664.741391,5773.606348,-71093.662214
318.078141,61881.216751,5033.400406,-70634.004916
318.080702,61437.093186,6809.894666,-66497.089226
318.083263,-19245.354492,2812.782580,-69561.471218
318.085824,-30348.443622,-8438.347739,-71706.538613
318.088385,148.041188,3997.112087,-80133.589091
318.090947,110290.685358,8882.471304,-45506.072581
318.093508,-43672.150578,5921.647536,-89173.515967
318.096069,17172.777854,-3108.864956,-61287.639840
318.098630,28571.949361,11695.253884,-70021.128517
318.101191,46632.974346,4737.318029,-62206.954438
318.103752,6513.812290,-1776.494261,-74924.139704
318.106313,9178.553681,-3552.988522,-68488.937521
318.108878,-27535.661042,11251.130318,-75383.797003
318.111443,10066.800811,6661.853478,-77069.207099
318.114008,76389.253214,1924.535449,-59142.572446
318.116573,-35233.802839,-7846.182985,-78754.617194
318.119138,-24870.919651,-6365.771101,-64045.583633
318.121703,-13767.830521,9178.553681,-80899.684589
318.124268,68691.111418,296.082377,-64964.898230
318.126833,31680.814318,-2072.576638,-71859.757712
318.129398,-17320.819043,13027.624579,-67722.842023
318.131963,-50482.045244,6365.771101,-78448.178995
318.134528,16580.613101,2516.700203,-73238.729609
318.137093,55219.363273,10066.800811,-64045.583633
318.139658,12731.542202,888.247130,-63892.364533
318.142223,-14508.036463,888.247130,-74158.044206
318.144788,-20873.807564,2664.741391,-81206.122788
318.147353,34641.638086,4589.276840,-61594.078039
318.149918,148.041188,8734.430116,-72625.853210
318.152482,-5921.647536,-4737.318029,-73851.606007
318.155047,10955.047942,1924.535449,-69714.690318
318.157612,6809.894666,7698.141797,-72012.976812
318.160177,0.000000,-1628.453072,-71400.100414
318.162742,2664.741391,8290.306550,-69561.471218
318.165307,57143.898722,4885.359217,-66190.651027
318.167872,39378.956114,7550.100608,-74464.482406
318.170437,2516.700203,-6661.853478,-62819.830836
318.173002,-36862.255912,-3849.070898,-72319.415011
318.175567,-5477.523971,12731.542202,-73698.386908
318.178132,74908.841330,-3701.029710,-64505.240932
318.180697,53294.827824,9178.553681,-69408.252119
318.183262,-19097.313304,5033.400406,-68029.280222
318.185827,-18061.024985,-3701.029710,-68642.156621
318.188392,31532.773129,10214.842000,-72166.195912
318.190957,17912.983796,2220.617826,-73545.167808
318.193522,7846.182985,-5773.606348,-69867.909418
318.196087,-6513.812290,7402.059420,-76915.987999
318.198651,42487.821071,5773.606348,-66037.431928
318.201216,18061.024985,2368.659014,-72012.976812
318.203781,27239.578666,6069.688724,-65424.555529
318.206346,6809.894666,2368.659014,-71400.100414
318.208911,-6957.935855,6661.853478,-69867.909418
318.211479,18061.024985,444.123565,-72779.072310
318.214046,59068.434172,19985.560434,-65424.555529
318.216613,-25167.002028,-3552.988522,-71093.662214
318.219180,-42931.944636,-4441.235652,-77222.426198
318.221748,21465.972318,1480.411884,-67569.622924
318.224315,55071.322085,0.000000,-70787.224015
318.226882,-2220.617826,592.164754,-78448.178995
318.229449,-11251.130318,5625.565159,-64505.240932
318.232017,-33161.226202,5033.400406,-77222.426198
318.234584,23834.631332,1184.329507,-69867.909418
318.237151,51666.374752,7254.018232,-63432.707234
318.239719,-15248.242405,2664.741391,-75537.016103
318.242286,-17468.860231,3701.029710,-74770.920605
318.244853,19245.354492,9030.512492,-66650.308326
318.247420,-14508.036463,3256.906145,-80899.684589
318.249988,18357.107362,-3108.864956,-64198.802732
318.252555,444.123565,6957.935855,-71706.538613
318.255122,9474.636058,7254.018232,-69714.690318
318.257689,-4885.359217,3552.988522,-74617.701505
318.260257,22206.178260,9770.718434,-63432.707234
318.262824,-22206.178260,7105.977043,-78601.398095
318.265391,65582.246461,2516.700203,-65271.336430
318.267958,30792.567187,10807.006753,-75690.235202
318.270526,444.123565,-7550.100608,-62666.611736
318.273093,-42783.903448,10362.883188,-77069.207099
318.275660,42931.944636,9474.636058,-65271.336430
318.278228,56107.610404,-3849.070898,-75996.673402
318.280795,45152.562462,8734.430116,-59449.010645
318.283362,-46484.933158,7105.977043,-75996.673402
318.285929,16580.613101,-1776.494261,-63585.926334
318.288497,30348.443622,6217.729913,-74617.701505
318.291064,39230.914926,888.247130,-69101.813920
318.293631,2072.576638,1184.329507,-65271.336430
318.296198,888.247130,5329.482782,-72319.415011
318.298766,43079.985824,444.123565,-66037.431928
318.301333,1184.329507,-2072.576638,-77835.302597
318.303900,31680.814318,8734.430116,-64811.679131
318.306468,-8142.265362,11695.253884,-67722.842023
318.309035,-5033.400406,-5033.400406,-73545.167808
318.311602,25611.125593,-6365.771101,-79214.274493
318.314172,75797.088461,8882.471304,-52400.932063
318.316741,-60844.928432,1628.453072,-79827.150892
318.319311,-33753.390955,-1480.411884,-74617.701505
318.321880,29608.237680,17320.819043,-70021.128517
318.324450,61141.010809,3997.112087,-66190.651027
318.327019,-2664.741391,2812.782580,-69867.909418
318.329589,-44116.274143,1332.370696,-75843.454302
318.332158,-4441.235652,740.205942,-72012.976812
318.334728,30792.567187,6513.812290,-73851.606007
318.337298,44560.397708,296.082377,-63432.707234
318.339867,-42783.903448,740.205942,-77222.426198
318.342437,-9770.718434,-9770.718434,-75077.358804
318.345006,29608.237680,8290.306550,-65118.117330
318.347576,7105.977043,6365.771101,-73545.167808
318.350145,-7994.224174,-740.205942,-74158.044206
318.352715,-4293.194464,5773.606348,-71706.538613
318.355284,14508.036463,-1184.329507,-67876.061123
318.357854,5625.565159,4145.153275,-69714.690318
318.360423,-12879.583391,10955.047942,-77528.864398
318.362993,34049.473332,-13471.748144,-68488.937521
318.365563,58624.310606,10214.842000,-70174.347617
318.368132,4145.153275,7994.224174,-67876.061123
318.370702,-26943.496289,-3108.864956,-69255.033019
318.373271,-17172.777854,4145.153275,-75077.358804
318.375841,77573.582722,-8586.388927,-65118.117330
318.378410,54775.239708,5625.565159,-64505.240932
318.380980,-42931.944636,4145.153275,-79367.493593
318.383549,-6513.812290,-296.082377,-70327.566716
318.386119,25611.125593,-1332.370696,-73545.167808
318.388689,60252.763679,7550.100608,-59755.448844
318.391258,-2220.617826,2516.700203,-73391.948708
318.393828,-2516.700203,3701.029710,-75230.577904
318.396397,33901.432144,6809.894666,-70634.004916
318.398967,39378.956114,13767.830521,-60827.982541
318.401536,9474.636058,12583.501014,-72472.634111
318.404106,444.123565,1184.329507,-69101.813920
318.406675,7550.100608,-3404.947333,-67722.842023
318.409245,22354.219448,8734.430116,-77222.426198
318.411814,55515.445650,20429.683999,-61287.639840
318.414384,-34937.720462,888.247130,-72472.634111
318.416954,-36418.132346,5477.523971,-76303.111601
318.419525,17172.777854,14359.995275,-73545.167808
318.422095,55219.363273,148.041188,-66956.746525
318.424666,1776.494261,-444.123565,-76456.330700
318.427236,-21317.931130,3404.947333,-68335.718422
318.429807,-13915.871710,7550.100608,-68948.594820
318.432378,37602.461854,15988.448347,-66037.431928
318.434948,19837.519246,-1924.535449,-72319.415011
318.437519,-14063.912898,-888.247130,-75230.577904
318.440090,-18061.024985,6513.812290,-73851.606007
318.442660,41303.491564,2368.659014,-57763.600549
318.445231,-20133.601622,9178.553681,-81972.218286
318.447802,14952.160028,2960.823768,-69408.252119
318.450372,-5329.482782,2664.741391,-70327.566716
318.452943,5033.400406,2960.823768,-70634.004916
318.455514,-12435.459826,7846.182985,-76303.111601
318.458084,-11843.295072,7402.059420,-76609.549800
318.460655,57439.981099,-888.247130,-66343.870127
318.463226,40563.285622,9326.594869,-72012.976812
318.465796,3997.112087,4589.276840,-63432.707234
318.468367,-40859.367998,5181.441594,-74158.044206
318.470938,8438.347739,11399.171507,-70021.128517
318.473508,80830.488866,-148.041188,-62666.611736
318.476079,44560.397708,1480.411884,-70327.566716
318.478650,-29312.155303,0.000000,-74464.482406
318.481220,-19541.436869,5329.482782,-68948.594820
318.483791,74316.676577,6513.812290,-56844.285952
318.486362,29164.114115,-148.041188,-67876.061123
318.488932,-888.247130,-6661.853478,-73698.386908
318.491503,-1776.494261,296.082377,-72472.634111
318.494074,45892.768404,2368.659014,-64811.679131
318.496644,5773.606348,7994.224174,-77835.302597
318.499215,22946.384202,4737.318029,-65884.212828
318.501786,24130.713709,-2368.659014,-61287.639840
318.504356,-26055.249158,-1628.453072,-78141.740796
318.506927,46929.056723,-5773.606348,-68182.499322
318.509498,3849.070898,5921.647536,-74924.139704
318.512068,-14063.912898,-6957.935855,-63279.488135
318.514639,-42635.862259,10658.965565,-80593.246390
318.517210,36566.173535,8290.306550,-69255.033019
318.519781,49001.633360,3997.112087,-69408.252119
318.522353,-2368.659014,10807.006753,-71093.662214
318.524925,-33901.432144,4145.153275,-76303.111601
318.527496,6217.729913,3701.029710,-63585.926334
318.530068,24278.754898,3552.988522,-74924.139704
318.532639,5625.565159,1332.370696,-77682.083497
318.535211,6365.771101,3997.112087,-63279.488135
318.537783,-2812.782580,7254.018232,-72012.976812
318.540354,444.123565,2664.741391,-75230.577904
318.542926,23538.548956,6809.894666,-66956.746525
318.545498,-5329.482782,2072.576638,-76762.768900
318.548069,9622.677246,5033.400406,-66190.651027
318.550641,-13175.665768,6661.853478,-75077.358804
318.553213,13175.665768,-740.205942,-66497.089226
318.555784,-5033.400406,5477.523971,-76762.768900
318.558356,74760.800142,5477.523971,-64658.460031
318.560927,21910.095883,10658.965565,-72472.634111
318.563499,-21614.013506,1036.288319,-65271.336430
318.566071,-29016.072926,4737.318029,-74617.701505
318.568642,44708.438897,13767.830521,-66497.089226
318.571214,55367.404462,-2960.823768,-76149.892501
318.573786,28571.949361,6513.812290,-62206.954438
318.576357,-48113.386230,15988.448347,-76303.111601
318.578929,6365.771101,-5625.565159,-69255.033019
318.581501,70615.646867,5033.400406,-60827.982541
318.584072,13915.871710,-5773.606348,-78294.959896
318.586644,-4737.318029,6661.853478,-66343.870127
318.589215,12879.583391,3108.864956,-74770.920605
318.591787,49001.633360,7402.059420,-60215.106143
318.594359,12879.583391,7254.018232,-75230.577904
318.596930,24722.878463,-1924.535449,-62973.049936
318.599502,-25463.084405,7254.018232,-74158.044206
318.602074,22650.301825,5329.482782,-69714.690318
318.604645,40415.244433,12139.377449,-70480.785816
318.607217,-9474.636058,6809.894666,-73545.167808
318.609789,-24130.713709,-444.123565,-66497.089226
318.612360,-24574.837274,2368.659014,-78141.740796
318.614932,44264.315332,-4441.235652,-70021.128517
318.617503,14063.912898,2220.617826,-74464.482406
318.620075,-2812.782580,2664.741391,-63892.364533
318.622648,-23538.548956,6957.935855,-75077.358804
318.625220,5181.441594,4441.235652,-73391.948708
318.627793,65582.246461,3849.070898,-60981.201641
318.630366,-35085.761651,-740.205942,-82585.094684
318.632938,5773.606348,12879.583391,-63432.707234
318.635511,-148.041188,12435.459826,-74617.701505
318.638083,-3256.906145,2812.782580,-77069.207099
318.640656,24130.713709,2812.782580,-66650.308326
318.643229,-10510.924376,12287.418637,-72472.634111
318.645801,9326.594869,-2072.576638,-66497.089226
318.648374,-10955.047942,-11399.171507,-74617.701505
318.650947,9030.512492,9474.636058,-71093.662214
318.653519,49593.798114,1924.535449,-72779.072310
318.656092,46484.933158,3108.864956,-65730.993728
318.658665,-12879.583391,3849.070898,-67569.622924
318.661237,-31384.731941,-7846.182985,-72012.976812
318.663810,-3552.988522,8586.388927,-76915.987999
318.666382,97855.225532,5329.482782,-57610.381450
318.668955,59216.475360,3997.112087,-55005.656756
318.671528,-56403.692780,3701.029710,-80899.684589
318.674100,25018.960840,3552.988522,-63739.145434
318.676673,22650.301825,4589.276840,-75230.577904
318.679246,12731.542202,-9178.553681,-75077.358804
318.681818,28423.908173,4589.276840,-59755.448844
318.684391,23538.548956,148.041188,-68029.280222
318.686963,1332.370696,2812.782580,-80286.808190
318.689536,41303.491564,888.247130,-61134.420740
318.692109,12139.377449,4293.194464,-70480.785816
318.694681,-12435.459826,5477.523971,-74158.044206
318.697254,7846.182985,2072.576638,-72472.634111
318.699827,48409.468607,15988.448347,-66803.527426
318.702399,-11547.212695,0.000000,-73851.606007
318.704972,-6365.771101,-4441.235652,-62053.735338
318.707544,-28571.949361,17320.819043,-81818.999186
318.710117,47669.262665,1924.535449,-66803.527426
318.712690,23094.425390,296.082377,-72319.415011
318.715262,-10066.800811,6217.729913,-70480.785816
318.717835,-22058.137072,148.041188,-73085.510509
318.720408,-2220.617826,5773.606348,-74004.825107
318.722980,19245.354492,-7846.182985,-75230.577904
318.725553,8586.388927,-1036.288319,-71093.662214
318.728125,-12731.542202,5773.606348,-66956.746525
318.730698,19541.436869,-1036.288319,-66497.089226
318.733270,-26795.455100,4885.359217,-85189.819378
318.735843,37750.503042,296.082377,-64964.898230
318.738416,5477.523971,-740.205942,-69255.033019
318.740988,-17912.983796,4589.276840,-73851.606007
318.743561,-19689.478057,3701.029710,-77375.645298
318.746133,33309.267390,2220.617826,-66956.746525
318.748706,81422.653620,4441.235652,-63126.269035
318.751278,1332.370696,7105.977043,-81206.122788
318.753851,148.041188,-4737.318029,-58376.476948
318.756424,-34641.638086,9918.759623,-73851.606007
318.758996,9622.677246,19689.478057,-79367.493593
318.761569,99927.802170,-1480.411884,-58989.353346
318.764141,42931.944636,1332.370696,-62206.954438
318.766714,-54775.239708,-3256.906145,-80746.465489
318.769286,3849.070898,-592.164754,-71859.757712
318.771859,40859.367998,4885.359217,-70021.128517
318.774432,42339.779882,-5773.606348,-61440.858940
318.777004,6957.935855,9622.677246,-66343.870127
318.779577,33013.185013,5773.606348,-65884.212828
318.782149,-11991.336260,1184.329507,-84730.162079
318.784722,64842.040519,14063.912898,-50868.741067
318.787294,-9030.512492,12287.418637,-79520.712692
318.789867,-4293.194464,-444.123565,-70327.566716
318.792440,1184.329507,5625.565159,-74311.263306
318.795012,67654.823099,25315.043216,-59295.791545
318.797585,-37898.544230,4737.318029,-81359.341888
318.800157,-11547.212695,-8586.388927,-67876.061123
318.802730,20133.601622,9178.553681,-66803.527426
318.805302,32569.061448,7254.018232,-72779.072310
318.807875,14063.912898,-3849.070898,-72472.634111
318.810448,-17468.860231,3997.112087,-71706.538613
318.813020,6069.688724,10066.800811,-65271.336430
318.815593,2220.617826,7254.018232,-75690.235202
318.818165,7994.224174,-5477.523971,-78141.740796
318.820738,12731.542202,3701.029710,-66956.746525
318.823310,-17764.942608,3849.070898,-72779.072310
318.825883,19393.395680,-740.205942,-65577.774629
318.828456,2516.700203,8586.388927,-76915.987999
318.831029,10658.965565,-3849.070898,-73085.510509
318.833601,21021.848753,11399.171507,-59602.229744
318.836174,-37602.461854,4589.276840,-82431.875585
318.838747,-1776.494261,296.082377,-70174.347617
318.841320,30052.361245,4441.235652,-69408.252119
318.843892,75649.047272,4293.194464,-66956.746525
318.846465,-9178.553681,1332.370696,-76456.330700
318.849038,-14508.036463,3849.070898,-62666.611736
318.851611,-31976.896694,8734.430116,-76762.768900
318.854183,84087.395011,6513.812290,-60827.982541
318.856756,36270.091158,2664.741391,-76762.768900
318.859329,7994.224174,1628.453072,-61134.420740
318.861902,-33161.226202,11695.253884,-72166.195912
318.864475,19393.395680,-2664.741391,-76303.111601
318.867047,35381.844028,592.164754,-73391.948708
318.869620,37602.461854,7698.141797,-59449.010645
318.872193,-4145.153275,1480.411884,-72166.195912
318.874766,3849.070898,-1184.329507,-74617.701505
318.877338,28423.908173,5773.606348,-70480.785816
318.879911,21465.972318,3108.864956,-78601.398095
318.882484,27831.743419,8586.388927,-58223.257848
318.885057,-25463.084405,2368.659014,-79673.931792
318.887630,49149.674549,5477.523971,-66497.089226
318.890202,7698.141797,-2516.700203,-73545.167808
318.892775,888.247130,-4737.318029,-63126.269035
318.895348,-47669.262665,10066.800811,-84576.942979
318.897921,32124.937883,10214.842000,-64045.583633
318.900493,27683.702231,-2960.823768,-75843.454302
318.903066,20281.642811,17468.860231,-65884.212828
318.905639,-32421.020260,3552.988522,-77375.645298
318.908212,-25167.002028,-148.041188,-79367.493593
318.910784,67802.864287,6069.688724,-55771.752254
318.913357,-12731.542202,4885.359217,-80286.808190
318.915930,-15396.283594,740.205942,-71400.100414
318.918503,-4589.276840,5625.565159,-74158.044206
318.921076,24278.754898,1036.288319,-65577.774629
318.923648,4885.359217,0.000000,-77528.864398
318.926221,6365.771101,4589.276840,-69867.909418
318.928794,3849.070898,8290.306550,-65424.555529
318.931366,-21169.889941,5625.565159,-75230.577904
318.933938,23982.672521,3552.988522,-70787.224015
318.936511,66026.370026,-740.205942,-73238.729609
318.939083,33309.267390,2812.782580,-65271.336430
318.941655,-28868.031738,-1332.370696,-68948.594820
318.944227,-35381.844028,1036.288319,-74311.263306
318.946800,28275.866984,4589.276840,-72472.634111
318.949372,86308.012837,5329.482782,-66037.431928
318.951944,29904.320057,-592.164754,-64352.021832
318.954516,-47373.180288,-1184.329507,-78448.178995
318.957089,15692.365970,6809.894666,-64964.898230
318.959661,73428.429446,16580.613101,-60215.106143
318.962233,-6809.894666,296.082377,-81665.780087
318.964805,7105.977043,1480.411884,-64352.021832
318.967378,25611.125593,444.123565,-67263.184724
318.969950,37602.461854,-6957.935855,-66037.431928
318.972522,-2664.741391,6957.935855,-83197.971083
318.975094,35677.926404,11843.295072,-58989.353346
318.977666,-10066.800811,-6957.935855,-69561.471218
318.980239,6513.812290,-5033.400406,-79061.055394
318.982811,49593.798114,13915.871710,-63279.488135
318.985383,-20577.725188,7846.182985,-75996.673402
318.987955,-36270.091158,0.000000,-79367.493593
318.990528,18801.230927,11991.336260,-67876.061123
318.993100,37010.297100,3108.864956,-71859.757712
318.995672,16136.489536,4145.153275,-67569.622924
318.998244,-34641.638086,1184.329507,-78754.617194
319.000817,10066.800811,7254.018232,-64045.583633
319.003389,-11695.253884,6217.729913,-81512.560987
319.005961,48409.468607,-4441.235652,-65577.774629
319.008533,1924.535449,15988.448347,-65424.555529
319.011106,-34345.555709,7402.059420,-77222.426198
319.013678,-34197.514520,4441.235652,-87488.105872
319.016250,50630.086433,3849.070898,-62360.173537
319.018822,6661.853478,4737.318029,-71246.881314
319.021395,-14508.036463,8586.388927,-70940.443115
319.023967,-30200.402434,-8142.265362,-75230.577904
319.026539,34641.638086,3256.906145,-63126.269035
319.029111,63361.628635,7994.224174,-76609.549800
319.031684,42931.944636,2368.659014,-64658.460031
319.034255,-36862.255912,1628.453072,-66803.527426
319.036827,-39971.120868,-740.205942,-74464.482406
319.039399,26943.496289,21021.848753,-80440.027290
319.041971,92673.783938,4441.235652,-64811.679131
319.044543,27239.578666,-5625.565159,-58376.476948
319.047115,-64842.040519,3404.947333,-82431.875585
319.049687,40563.285622,9178.553681,-65577.774629
319.052259,21465.972318,2516.700203,-74770.920605
319.054830,29312.155303,-444.123565,-67263.184724
319.057402,-11547.212695,3997.112087,-76303.111601
319.059974,54183.074954,1332.370696,-57150.724151
319.062546,-8586.388927,8586.388927,-81818.999186
319.065118,42191.738694,7402.059420,-72319.415011
319.067690,24722.878463,5625.565159,-62360.173537
319.070262,-14063.912898,5477.523971,-74004.825107
319.072833,39526.997303,5625.565159,-69255.033019
319.075405,740.205942,7105.977043,-74311.263306
319.077977,5625.565159,-2368.659014,-64045.583633
319.080549,-40415.244433,3108.864956,-82125.437386
319.083121,34493.596897,10510.924376,-63126.269035
319.085693,28719.990550,1480.411884,-75537.016103
319.088265,11399.171507,-148.041188,-67263.184724
319.090837,-30496.484810,148.041188,-79673.931792
319.093408,-7105.977043,6809.894666,-72472.634111
319.095980,12583.501014,1776.494261,-76303.111601
319.098552,30792.567187,6365.771101,-64658.460031
319.101124,-21317.931130,10955.047942,-71246.881314
319.103696,12287.418637,1480.411884,-65884.212828
319.106268,-19541.436869,7994.224174,-81972.218286
319.108840,46929.056723,592.164754,-64964.898230
319.111412,-3108.864956,-148.041188,-71553.319513
