#time,accel_x,accel_y,accel_z
103.701932,7105.977043,3552.988522,-65271.336430
103.704495,1480.411884,7846.182985,-67722.842023
103.707058,3552.988522,9918.759623,-66190.651027
103.709620,9178.553681,4293.194464,-63892.364533
103.712183,2072.576638,2960.823768,-68795.375720
103.714745,148.041188,148.041188,-68182.499322
103.717308,9030.512492,4293.194464,-64198.802732
103.719871,5625.565159,9178.553681,-65884.212828
103.722433,3997.112087,740.205942,-66497.089226
103.724996,8734.430116,6661.853478,-64045.583633
103.727558,4441.235652,2812.782580,-65577.774629
103.730121,5773.606348,-1628.453072,-66190.651027
103.732684,5181.441594,-1480.411884,-66497.089226
103.735246,5033.400406,1036.288319,-66037.431928
103.737809,4885.359217,148.041188,-66497.089226
103.740371,888.247130,4293.194464,-68182.499322
103.742934,4145.153275,1332.370696,-66803.527426
103.745497,10362.883188,2664.741391,-63279.488135
103.748059,9918.759623,-1036.288319,-64811.679131
103.750622,9178.553681,3849.070898,-64352.021832
103.753184,5033.400406,592.164754,-64964.898230
103.755747,2664.741391,0.000000,-69101.813920
103.758310,-1184.329507,3997.112087,-68642.156621
103.760872,8142.265362,7402.059420,-64658.460031
103.763435,10066.800811,-36566.173535,-64505.240932
103.765998,12583.501014,-24574.837274,-65271.336430
103.768560,148.041188,10510.924376,-69561.471218
103.771123,2516.700203,9030.512492,-65884.212828
103.773685,8734.430116,-2220.617826,-64658.460031
103.776248,4293.194464,2072.576638,-66650.308326
103.778811,2516.700203,-12879.583391,-67722.842023
103.781373,12435.459826,-14508.036463,-63279.488135
103.783936,5773.606348,-888.247130,-66956.746525
103.786498,4737.318029,-2812.782580,-66497.089226
103.789061,7550.100608,-2812.782580,-65730.993728
103.791618,5477.523971,8438.347739,-66803.527426
103.794175,592.164754,7698.141797,-65577.774629
103.796732,7105.977043,-2072.576638,-65884.212828
103.799289,7402.059420,2664.741391,-68795.375720
103.801846,3701.029710,1036.288319,-67416.403824
103.804403,4885.359217,5477.523971,-64811.679131
103.806960,444.123565,11399.171507,-68335.718422
103.809517,3552.988522,4589.276840,-65271.336430
103.812074,6661.853478,1628.453072,-63892.364533
103.814630,3849.070898,8882.471304,-65424.555529
103.817187,7698.141797,8438.347739,-66956.746525
103.819744,3997.112087,-7402.059420,-66956.746525
103.822301,4145.153275,11695.253884,-64964.898230
103.824858,8142.265362,13027.624579,-63432.707234
103.827415,6957.935855,4885.359217,-66650.308326
103.829972,296.082377,0.000000,-66343.870127
103.832529,-592.164754,2960.823768,-68795.375720
103.835086,14656.077652,-17468.860231,-64811.679131
103.837643,7402.059420,6957.935855,-63432.707234
103.840200,-1184.329507,28571.949361,-68029.280222
103.842757,3997.112087,1184.329507,-66650.308326
103.845314,8882.471304,3108.864956,-64811.679131
103.847871,-1480.411884,-2220.617826,-66956.746525
103.850428,9622.677246,-8882.471304,-65884.212828
103.852985,9030.512492,3108.864956,-66956.746525
103.855542,4441.235652,12139.377449,-67876.061123
103.858099,3404.947333,10214.842000,-65884.212828
103.860656,5773.606348,6661.853478,-64658.460031
103.863212,3256.906145,11399.171507,-66956.746525
103.865769,-2812.782580,4293.194464,-67876.061123
103.868326,10955.047942,4885.359217,-64352.021832
103.870883,5625.565159,1924.535449,-65884.212828
103.873440,-148.041188,-2220.617826,-67876.061123
103.875997,-740.205942,10658.965565,-68029.280222
103.878554,11547.212695,-1924.535449,-62973.049936
103.881111,7402.059420,740.205942,-66037.431928
103.883668,740.205942,18505.148550,-68182.499322
103.886225,1036.288319,-5181.441594,-67109.965625
103.888782,7846.182985,3404.947333,-64198.802732
103.891339,9474.636058,-4145.153275,-67569.622924
103.893888,-1480.411884,-2664.741391,-68335.718422
103.896438,3108.864956,-444.123565,-66343.870127
103.898988,8882.471304,5181.441594,-66803.527426
103.901539,6217.729913,1924.535449,-66190.651027
103.904089,-148.041188,-12731.542202,-68182.499322
103.906639,7994.224174,-4293.194464,-64964.898230
103.909189,9474.636058,-17024.736666,-63892.364533
103.911739,9474.636058,9030.512492,-65424.555529
103.914290,444.123565,7698.141797,-65271.336430
103.916840,-2368.659014,-21762.054695,-68795.375720
103.919390,10807.006753,-14211.954086,-65577.774629
103.921940,11251.130318,1036.288319,-64198.802732
103.924490,-3108.864956,1480.411884,-69714.690318
103.927041,11251.130318,-12435.459826,-65730.993728
103.929591,8882.471304,-8734.430116,-66803.527426
103.932141,1036.288319,-1184.329507,-66956.746525
103.934691,1332.370696,7105.977043,-66190.651027
103.937241,6809.894666,-3997.112087,-67722.842023
103.939792,6513.812290,-18061.024985,-68335.718422
103.942342,-740.205942,-8734.430116,-66343.870127
103.944892,15396.283594,8734.430116,-61134.420740
103.947442,-2072.576638,-5773.606348,-70940.443115
103.949992,5921.647536,-296.082377,-67109.965625
103.952543,7105.977043,4589.276840,-64658.460031
103.955093,6809.894666,-11991.336260,-66803.527426
103.957643,592.164754,-4737.318029,-67876.061123
103.960193,2960.823768,4885.359217,-66037.431928
103.962743,9474.636058,7105.977043,-64658.460031
103.965294,6513.812290,-1776.494261,-65884.212828
103.967844,7550.100608,1924.535449,-64505.240932
103.970394,2516.700203,-5181.441594,-66497.089226
103.972944,6217.729913,-6661.853478,-68029.280222
103.975494,10214.842000,13175.665768,-67263.184724
103.978045,-1924.535449,17764.942608,-64352.021832
103.980595,-5625.565159,-1332.370696,-65118.117330
103.983145,13767.830521,-16876.695478,-64658.460031
103.985695,14508.036463,296.082377,-65118.117330
103.988245,3701.029710,7994.224174,-68642.156621
103.990796,-7846.182985,10658.965565,-66803.527426
103.993346,7550.100608,3997.112087,-64964.898230
103.995893,13471.748144,8586.388927,-65271.336430
103.998439,-2368.659014,3849.070898,-68335.718422
104.000986,1480.411884,2072.576638,-66037.431928
104.003533,15248.242405,2664.741391,-65271.336430
104.006080,-296.082377,-7402.059420,-69255.033019
104.008627,740.205942,8438.347739,-67263.184724
104.011173,1924.535449,13619.789333,-65424.555529
104.013720,8142.265362,6809.894666,-66190.651027
104.016267,1924.535449,5773.606348,-67722.842023
104.018814,6957.935855,-15248.242405,-63279.488135
104.021361,3108.864956,9622.677246,-67263.184724
104.023907,2220.617826,10955.047942,-67876.061123
104.026454,6217.729913,-592.164754,-65424.555529
104.029001,1480.411884,5921.647536,-68029.280222
104.031548,6217.729913,-6365.771101,-65424.555529
104.034095,10955.047942,-8438.347739,-63432.707234
104.036641,-3256.906145,23834.631332,-68488.937521
104.039188,5477.523971,8438.347739,-66497.089226
104.041735,5921.647536,6809.894666,-67416.403824
104.044282,-4441.235652,5181.441594,-67263.184724
104.046828,16728.654289,7105.977043,-60521.544342
104.049375,-444.123565,1776.494261,-69255.033019
104.051922,-1628.453072,-1480.411884,-69714.690318
104.054469,13323.706956,9918.759623,-62053.735338
104.057016,3108.864956,3552.988522,-66343.870127
104.059562,6661.853478,-5477.523971,-67569.622924
104.062109,10807.006753,-2072.576638,-63892.364533
104.064656,7402.059420,6217.729913,-62973.049936
104.067203,-1480.411884,7402.059420,-68029.280222
104.069750,-2812.782580,6069.688724,-68488.937521
104.072296,13915.871710,-18801.230927,-65118.117330
104.074843,2960.823768,1776.494261,-66803.527426
104.077390,4293.194464,14211.954086,-66497.089226
104.079937,1628.453072,-4145.153275,-68795.375720
104.082484,8734.430116,-6365.771101,-63279.488135
104.085030,16284.530724,1332.370696,-63432.707234
104.087577,-11251.130318,-4885.359217,-71553.319513
104.090124,13323.706956,1924.535449,-62206.954438
104.092671,11399.171507,2368.659014,-65884.212828
104.095218,-5773.606348,-6661.853478,-70327.566716
104.097763,-5181.441594,-5181.441594,-68488.937521
104.100309,15248.242405,12731.542202,-64352.021832
104.102855,6957.935855,1480.411884,-65730.993728
104.105401,2516.700203,-1480.411884,-66803.527426
104.107946,6809.894666,296.082377,-65577.774629
104.110492,7105.977043,-2960.823768,-64198.802732
104.113038,1184.329507,-8882.471304,-67569.622924
104.115583,4441.235652,8586.388927,-68029.280222
104.118129,888.247130,-2220.617826,-65118.117330
104.120675,3849.070898,-296.082377,-66497.089226
104.123221,11843.295072,-17764.942608,-65118.117330
104.125766,13767.830521,-26943.496289,-64658.460031
104.128312,-592.164754,1628.453072,-69867.909418
104.130858,3404.947333,7254.018232,-66650.308326
104.133404,15544.324782,13767.830521,-62819.830836
104.135949,-6809.894666,-9030.512492,-69101.813920
104.138495,4441.235652,-2960.823768,-65424.555529
104.141041,17024.736666,-148.041188,-62206.954438
104.143586,-6069.688724,-2220.617826,-70787.224015
104.146132,8142.265362,-444.123565,-65577.774629
104.148678,5921.647536,-2368.659014,-66956.746525
104.151224,10214.842000,4293.194464,-64811.679131
104.153769,13767.830521,-10362.883188,-65577.774629
104.156315,888.247130,-888.247130,-67416.403824
104.158861,-3701.029710,2072.576638,-66956.746525
104.161407,13471.748144,-5181.441594,-62973.049936
104.163952,8882.471304,-7994.224174,-67416.403824
104.166498,-1184.329507,16284.530724,-68182.499322
104.169044,-148.041188,14508.036463,-63432.707234
104.171589,1184.329507,-9770.718434,-67416.403824
104.174135,10807.006753,-5921.647536,-66803.527426
104.176681,13619.789333,-11251.130318,-68029.280222
104.179227,-10362.883188,19837.519246,-69408.252119
104.181772,13323.706956,5329.482782,-60368.325242
104.184318,-4441.235652,3108.864956,-70787.224015
104.186864,6217.729913,-296.082377,-65577.774629
104.189410,11547.212695,-444.123565,-62206.954438
104.191955,-3404.947333,8142.265362,-70634.004916
104.194501,7254.018232,7846.182985,-66650.308326
104.197047,12583.501014,13471.748144,-63739.145434
104.199590,-2516.700203,4293.194464,-67263.184724
104.202132,4885.359217,4441.235652,-66650.308326
104.204675,3404.947333,-3701.029710,-67722.842023
104.207218,5921.647536,27535.661042,-64505.240932
104.209761,-2220.617826,-1332.370696,-65884.212828
104.212304,8438.347739,7550.100608,-66497.089226
104.214847,3256.906145,-5625.565159,-68029.280222
104.217390,-444.123565,-592.164754,-66650.308326
104.219933,12879.583391,15248.242405,-64352.021832
104.222475,9622.677246,-13471.748144,-65577.774629
104.225018,-1776.494261,11547.212695,-67876.061123
104.227561,13471.748144,17764.942608,-64964.898230
104.230104,3849.070898,15840.407159,-66343.870127
104.232647,-5033.400406,592.164754,-69101.813920
104.235190,9326.594869,-7994.224174,-65118.117330
104.237733,9622.677246,148.041188,-64198.802732
104.240276,4145.153275,8142.265362,-67416.403824
104.242819,-4441.235652,17912.983796,-69867.909418
104.245361,5181.441594,2220.617826,-66650.308326
104.247904,15988.448347,10658.965565,-65424.555529
104.250447,-4145.153275,3997.112087,-67109.965625
104.252990,5477.523971,-888.247130,-65118.117330
104.255533,7402.059420,1480.411884,-66650.308326
104.258076,5329.482782,-3552.988522,-65730.993728
104.260619,6365.771101,-3108.864956,-68029.280222
104.263162,1036.288319,19985.560434,-68335.718422
104.265704,8438.347739,1776.494261,-65730.993728
104.268247,1776.494261,-8142.265362,-66343.870127
104.270790,8734.430116,-17764.942608,-65884.212828
104.273333,4737.318029,-3404.947333,-66497.089226
104.275876,13915.871710,8882.471304,-62360.173537
104.278419,-6661.853478,-2812.782580,-71553.319513
104.280962,-3849.070898,444.123565,-69255.033019
104.283505,8586.388927,1480.411884,-63126.269035
104.286047,9326.594869,6513.812290,-63432.707234
104.288590,-444.123565,-8142.265362,-70787.224015
104.291133,8734.430116,3701.029710,-66650.308326
104.293676,9030.512492,12731.542202,-63739.145434
104.296219,-5033.400406,-17616.901420,-69714.690318
104.298762,11695.253884,8586.388927,-64658.460031
104.301304,4293.194464,9178.553681,-65884.212828
104.303845,-4589.276840,9326.594869,-69867.909418
104.306387,8586.388927,-13323.706956,-66343.870127
104.308929,7254.018232,-30200.402434,-63279.488135
104.311470,6365.771101,10214.842000,-68488.937521
104.314012,5329.482782,4589.276840,-67109.965625
104.316554,3997.112087,-23094.425390,-65577.774629
104.319095,4737.318029,8882.471304,-65884.212828
104.321637,4293.194464,-2812.782580,-66037.431928
104.324179,2664.741391,0.000000,-68335.718422
104.326721,7698.141797,-7254.018232,-65730.993728
104.329262,1036.288319,-10658.965565,-67569.622924
104.331804,12435.459826,1480.411884,-63585.926334
104.334346,9474.636058,-2664.741391,-64045.583633
104.336887,10955.047942,13323.706956,-65271.336430
104.339429,-148.041188,4293.194464,-68335.718422
104.341971,-8734.430116,592.164754,-68642.156621
104.344512,16728.654289,1480.411884,-63432.707234
104.347054,11695.253884,-1924.535449,-67876.061123
104.349596,-1184.329507,28571.949361,-67263.184724
104.352138,-2368.659014,15544.324782,-64198.802732
104.354679,5477.523971,-6809.894666,-65884.212828
104.357221,6809.894666,-3108.864956,-68488.937521
104.359763,6069.688724,23538.548956,-68948.594820
104.362304,592.164754,12287.418637,-63892.364533
104.364846,4441.235652,7105.977043,-64658.460031
104.367388,148.041188,1184.329507,-69561.471218
104.369929,12879.583391,-5181.441594,-64352.021832
104.372471,888.247130,7402.059420,-67416.403824
104.375013,2368.659014,-740.205942,-69255.033019
104.377555,11103.089130,15692.365970,-63739.145434
104.380096,5033.400406,8882.471304,-65424.555529
104.382638,-5773.606348,-5773.606348,-69867.909418
104.385180,10510.924376,7402.059420,-67876.061123
104.387721,20133.601622,-7994.224174,-60674.763442
104.390263,2072.576638,11251.130318,-68948.594820
104.392805,-3997.112087,-1776.494261,-69101.813920
104.395346,3997.112087,148.041188,-66190.651027
104.397888,12287.418637,8882.471304,-63432.707234
104.400430,11843.295072,-21762.054695,-64658.460031
104.402972,1776.494261,-296.082377,-67569.622924
104.405514,-6513.812290,17912.983796,-71553.319513
104.408056,14508.036463,-4589.276840,-63432.707234
104.410598,6513.812290,-888.247130,-66190.651027
104.413140,-1628.453072,-6069.688724,-67569.622924
104.415682,3404.947333,-2812.782580,-66803.527426
104.418224,13767.830521,6661.853478,-63279.488135
104.420766,296.082377,6513.812290,-68335.718422
104.423308,-592.164754,12139.377449,-68795.375720
104.425850,7994.224174,5625.565159,-65424.555529
104.428392,9622.677246,-6809.894666,-65884.212828
104.430934,4293.194464,5477.523971,-66190.651027
104.433476,-4293.194464,296.082377,-67416.403824
104.436018,6661.853478,6513.812290,-63739.145434
104.438560,13027.624579,-11399.171507,-65118.117330
104.441102,2812.782580,-10955.047942,-67876.061123
104.443644,-4589.276840,22650.301825,-69561.471218
104.446186,11695.253884,-296.082377,-64198.802732
104.448728,4293.194464,-14508.036463,-65424.555529
104.451270,20873.807564,2220.617826,-63126.269035
104.453812,-9918.759623,-1776.494261,-70787.224015
104.456354,2960.823768,-2072.576638,-65118.117330
104.458896,16876.695478,1924.535449,-62973.049936
104.461438,-1480.411884,-6069.688724,-67109.965625
104.463980,-148.041188,-2072.576638,-66497.089226
104.466522,13323.706956,7698.141797,-63739.145434
104.469064,7846.182985,-5329.482782,-68335.718422
104.471606,444.123565,-4441.235652,-67416.403824
104.474148,10362.883188,9918.759623,-64045.583633
104.476690,1332.370696,18061.024985,-67876.061123
104.479232,296.082377,592.164754,-67109.965625
104.481774,11103.089130,-296.082377,-64045.583633
104.484316,888.247130,8142.265362,-67569.622924
104.486858,9326.594869,-3108.864956,-64811.679131
104.489400,8586.388927,8734.430116,-66190.651027
104.491942,-2072.576638,6365.771101,-69867.909418
104.494484,444.123565,2220.617826,-66650.308326
104.497026,6809.894666,0.000000,-65577.774629
104.499568,6661.853478,-7698.141797,-66650.308326
104.502110,10066.800811,-5033.400406,-64352.021832
104.504651,2072.576638,-1776.494261,-67876.061123
104.507192,4885.359217,888.247130,-67876.061123
104.509733,4737.318029,-6365.771101,-65118.117330
104.512274,-740.205942,-16432.571912,-68642.156621
104.514815,6069.688724,4145.153275,-67416.403824
104.517356,13471.748144,6809.894666,-60981.201641
104.519897,8290.306550,-12287.418637,-64505.240932
104.522438,5921.647536,-18949.272115,-68795.375720
104.524979,12139.377449,10510.924376,-67722.842023
104.527520,-3404.947333,23686.590144,-65577.774629
104.530061,-296.082377,2368.659014,-63279.488135
104.532602,5625.565159,-11547.212695,-68642.156621
104.535143,7846.182985,10807.006753,-68642.156621
104.537684,13027.624579,4885.359217,-62360.173537
104.540225,296.082377,148.041188,-64811.679131
104.542766,-3849.070898,8882.471304,-68488.937521
104.545307,5033.400406,7254.018232,-66956.746525
104.547847,1776.494261,11251.130318,-66956.746525
104.550388,9474.636058,12435.459826,-64352.021832
104.552929,5477.523971,4737.318029,-67109.965625
104.555470,2220.617826,-1184.329507,-66650.308326
104.558011,6217.729913,14359.995275,-64658.460031
104.560552,7254.018232,7994.224174,-65884.212828
104.563093,-5033.400406,8882.471304,-71093.662214
104.565634,7550.100608,27683.702231,-64505.240932
104.568175,3404.947333,2072.576638,-64658.460031
104.570716,1332.370696,2368.659014,-66650.308326
104.573257,3552.988522,9030.512492,-67263.184724
104.575798,9178.553681,-12879.583391,-63739.145434
104.578339,7846.182985,740.205942,-65577.774629
104.580880,6069.688724,36122.049970,-66650.308326
104.583421,-8586.388927,8882.471304,-70480.785816
104.585962,6365.771101,4145.153275,-63585.926334
104.588503,16136.489536,1480.411884,-61440.858940
104.591044,-5773.606348,4885.359217,-70787.224015
104.593585,3256.906145,7105.977043,-65730.993728
104.596126,9622.677246,7105.977043,-63892.364533
104.598667,11399.171507,15248.242405,-64658.460031
104.601208,20281.642811,-14063.912898,-60674.763442
104.603748,-3701.029710,-6809.894666,-68182.499322
104.606290,-3997.112087,21317.931130,-68948.594820
104.608831,11399.171507,10214.842000,-61747.297139
104.611372,2220.617826,-7105.977043,-66497.089226
104.613914,9918.759623,-24278.754898,-66956.746525
104.616455,17764.942608,-9918.759623,-62819.830836
104.618997,-10807.006753,15100.201217,-70634.004916
104.621538,15988.448347,3849.070898,-63279.488135
104.624079,1184.329507,-13027.624579,-67416.403824
104.626621,-5329.482782,-11991.336260,-67722.842023
104.629162,23242.466579,1628.453072,-56691.066852
104.631703,-7994.224174,4145.153275,-72166.195912
104.634245,7994.224174,-9770.718434,-66956.746525
104.636786,15692.365970,4145.153275,-59449.010645
104.639327,-11251.130318,-1332.370696,-70634.004916
104.641869,7846.182985,-2812.782580,-67109.965625
104.644410,15100.201217,-7994.224174,-65271.336430
104.646951,1480.411884,8882.471304,-66497.089226
104.649493,-2220.617826,9474.636058,-66497.089226
104.652034,-2960.823768,-5033.400406,-68488.937521
104.654575,8438.347739,-3108.864956,-66803.527426
104.657117,12583.501014,2812.782580,-65271.336430
104.659658,4441.235652,-41895.656317,-64811.679131
104.662199,2072.576638,7105.977043,-66497.089226
104.664741,9770.718434,25611.125593,-66190.651027
104.667282,6661.853478,-5773.606348,-66956.746525
104.669823,-2072.576638,-4441.235652,-65884.212828
104.672365,7994.224174,-3256.906145,-64198.802732
104.674906,15544.324782,-5181.441594,-65884.212828
104.677447,12287.418637,-12139.377449,-63126.269035
104.679989,-3701.029710,-10807.006753,-69255.033019
104.682530,8290.306550,3997.112087,-64811.679131
104.685071,18209.066173,20725.766376,-63126.269035
104.687613,-5329.482782,888.247130,-66343.870127
104.690154,-12583.501014,-8142.265362,-69714.690318
104.692695,22206.178260,3997.112087,-62206.954438
104.695237,17320.819043,-1184.329507,-66037.431928
104.697778,-2220.617826,16876.695478,-67569.622924
104.700319,-6661.853478,13175.665768,-64964.898230
104.702861,7846.182985,-1332.370696,-64964.898230
104.705402,17172.777854,13767.830521,-63585.926334
104.707943,1184.329507,4885.359217,-68642.156621
104.710484,-8438.347739,22354.219448,-68642.156621
104.713025,5329.482782,10066.800811,-65118.117330
104.715567,10955.047942,-10362.883188,-64045.583633
104.718108,-1332.370696,3997.112087,-68335.718422
104.720649,1036.288319,16728.654289,-66956.746525
104.723190,9178.553681,3552.988522,-66037.431928
104.725731,5329.482782,6365.771101,-66190.651027
104.728272,6809.894666,-5625.565159,-67109.965625
104.730813,7105.977043,-4737.318029,-65271.336430
104.733355,11399.171507,-4293.194464,-64811.679131
104.735896,11251.130318,15396.283594,-66650.308326
104.738437,-9918.759623,5773.606348,-69101.813920
104.740978,-888.247130,-2664.741391,-68029.280222
104.743519,9918.759623,-3701.029710,-66037.431928
104.746060,16432.571912,-9622.677246,-62360.173537
104.748601,2960.823768,-4737.318029,-66803.527426
104.751143,-14063.912898,22058.137072,-73698.386908
104.753684,21169.889941,21465.972318,-62513.392637
104.756225,14952.160028,16876.695478,-61594.078039
104.758766,-1924.535449,5477.523971,-67416.403824
104.761307,-6365.771101,-1036.288319,-70021.128517
104.763848,12879.583391,10066.800811,-62973.049936
104.766389,6365.771101,19985.560434,-66037.431928
104.768931,-888.247130,7846.182985,-69561.471218
104.771472,0.000000,6069.688724,-67876.061123
104.774013,9178.553681,13323.706956,-63432.707234
104.776554,5625.565159,9326.594869,-64964.898230
104.779095,-4885.359217,740.205942,-69408.252119
104.781636,8586.388927,-9474.636058,-64658.460031
104.784177,10214.842000,-4441.235652,-65424.555529
104.786718,9474.636058,13027.624579,-65424.555529
104.789259,-4589.276840,-10510.924376,-68795.375720
104.791800,4145.153275,-4589.276840,-66497.089226
104.794340,22502.260637,12139.377449,-62666.611736
104.796881,-8290.306550,-4293.194464,-69867.909418
104.799421,3701.029710,-7994.224174,-64811.679131
104.801962,11695.253884,5181.441594,-65271.336430
104.804503,1776.494261,-7254.018232,-66190.651027
104.807043,2072.576638,-7254.018232,-67569.622924
104.809584,8438.347739,-4441.235652,-65884.212828
104.812125,5329.482782,296.082377,-68488.937521
104.814665,7402.059420,-296.082377,-65577.774629
104.817206,8882.471304,7846.182985,-64198.802732
104.819746,-11843.295072,888.247130,-70634.004916
104.822287,12879.583391,11695.253884,-65577.774629
104.824828,10214.842000,4145.153275,-63279.488135
104.827368,-4293.194464,-7254.018232,-66803.527426
104.829909,-1480.411884,23686.590144,-71400.100414
104.832449,8142.265362,9622.677246,-66650.308326
104.834990,4293.194464,-7698.141797,-65884.212828
104.837531,-1776.494261,-5329.482782,-66956.746525
104.840071,11399.171507,-15988.448347,-66650.308326
104.842612,13471.748144,-9326.594869,-66497.089226
104.845152,-740.205942,-3997.112087,-67569.622924
104.847693,4145.153275,2812.782580,-65118.117330
104.850234,4293.194464,-6217.729913,-69255.033019
104.852774,2516.700203,-9326.594869,-66190.651027
104.855315,10214.842000,2960.823768,-61134.420740
104.857855,-7550.100608,-6217.729913,-70327.566716
104.860396,13619.789333,-15988.448347,-66190.651027
104.862937,18209.066173,12139.377449,-66343.870127
104.865477,-12879.583391,21762.054695,-68795.375720
104.868018,1924.535449,740.205942,-63279.488135
104.870558,20725.766376,-14359.995275,-63432.707234
104.873099,6661.853478,8142.265362,-68029.280222
104.875640,2516.700203,740.205942,-66037.431928
104.878180,-2516.700203,1628.453072,-66497.089226
104.880721,1480.411884,16432.571912,-65884.212828
104.883261,10658.965565,-2220.617826,-64352.021832
104.885802,4293.194464,-1332.370696,-66037.431928
104.888343,3997.112087,-5329.482782,-67416.403824
104.890883,6661.853478,16876.695478,-67416.403824
104.893425,4293.194464,13619.789333,-66343.870127
104.895966,-2368.659014,740.205942,-65730.993728
104.898508,9622.677246,-1924.535449,-65424.555529
104.901049,15248.242405,-8734.430116,-65424.555529
104.903591,-3404.947333,16136.489536,-68029.280222
104.906132,4293.194464,-4441.235652,-65884.212828
104.908673,5625.565159,-2812.782580,-66190.651027
104.911215,2960.823768,6809.894666,-68948.594820
104.913756,-1628.453072,592.164754,-66650.308326
104.916298,13915.871710,10066.800811,-62666.611736
104.918839,4293.194464,4441.235652,-68488.937521
104.921381,1628.453072,-2368.659014,-68182.499322
104.923922,9622.677246,6957.935855,-62360.173537
104.926463,3552.988522,7550.100608,-66650.308326
104.929005,5033.400406,1924.535449,-67722.842023
104.931546,888.247130,-740.205942,-66343.870127
104.934088,18801.230927,-8438.347739,-62053.735338
104.936629,-4737.318029,-4293.194464,-69408.252119
104.939171,-1332.370696,13323.706956,-68335.718422
104.941712,9326.594869,20429.683999,-63126.269035
104.944253,9326.594869,-14656.077652,-63585.926334
104.946795,-1480.411884,-13323.706956,-71553.319513
104.949336,8734.430116,-1628.453072,-66803.527426
104.951878,12435.459826,4737.318029,-63279.488135
104.954419,-4145.153275,-3997.112087,-70174.347617
104.956961,444.123565,-5181.441594,-67416.403824
104.959502,21317.931130,-1036.288319,-61747.297139
104.962044,-1924.535449,-4737.318029,-68335.718422
104.964585,-6365.771101,-1776.494261,-69867.909418
104.967126,23094.425390,-6217.729913,-63585.926334
104.969668,3997.112087,4737.318029,-65118.117330
104.972209,-3404.947333,-5921.647536,-67263.184724
104.974751,9178.553681,2664.741391,-68029.280222
104.977292,6957.935855,-1036.288319,-67569.622924
104.979834,6661.853478,-17468.860231,-64811.679131
104.982375,3701.029710,11991.336260,-66956.746525
104.984916,5329.482782,-740.205942,-66037.431928
104.987458,-1628.453072,-1332.370696,-68642.156621
104.989999,9178.553681,-1776.494261,-64811.679131
104.992541,11399.171507,-7254.018232,-64505.240932
104.995082,4589.276840,-7550.100608,-66956.746525
104.997624,0.000000,-19689.478057,-68029.280222
105.000165,7994.224174,-4145.153275,-64964.898230
105.002706,9178.553681,5773.606348,-66803.527426
105.005248,4441.235652,-6217.729913,-68488.937521
105.007789,740.205942,-15248.242405,-67109.965625
105.010331,10214.842000,-5477.523971,-64811.679131
105.012872,17172.777854,14359.995275,-64658.460031
105.015413,-14211.954086,8438.347739,-71859.757712
105.017955,2812.782580,-5625.565159,-61747.297139
105.020496,28571.949361,-11843.295072,-58989.353346
105.023038,12435.459826,-3997.112087,-66956.746525
105.025579,-5773.606348,16284.530724,-71859.757712
105.028121,-6217.729913,18949.272115,-64658.460031
105.030662,12731.542202,-2220.617826,-61900.516238
105.033203,12287.418637,-6069.688724,-67416.403824
105.035745,-1332.370696,15248.242405,-71246.881314
105.038286,7402.059420,16284.530724,-64198.802732
105.040828,-2960.823768,5773.606348,-66037.431928
105.043369,-296.082377,2072.576638,-66343.870127
105.045911,6809.894666,6069.688724,-67876.061123
105.048452,5921.647536,7105.977043,-65118.117330
105.050993,11103.089130,-740.205942,-66497.089226
105.053535,4145.153275,3552.988522,-68948.594820
105.056076,888.247130,-4441.235652,-66343.870127
105.058618,13323.706956,-4885.359217,-63585.926334
105.061159,2072.576638,-14211.954086,-68948.594820
105.063700,3701.029710,9178.553681,-69255.033019
105.066242,1628.453072,11399.171507,-66803.527426
105.068783,5773.606348,-12287.418637,-64352.021832
105.071325,8882.471304,-8882.471304,-64964.898230
105.073866,14508.036463,-2220.617826,-63585.926334
105.076408,1036.288319,16580.613101,-67722.842023
105.078949,-2960.823768,7105.977043,-68795.375720
105.081490,8882.471304,-296.082377,-65730.993728
105.084032,13619.789333,-4441.235652,-62053.735338
105.086573,-3404.947333,0.000000,-69561.471218
105.089115,7698.141797,7994.224174,-65118.117330
105.091656,11547.212695,9178.553681,-64811.679131
105.094198,-1776.494261,7698.141797,-69714.690318
105.096741,3701.029710,2664.741391,-65271.336430
105.099283,8586.388927,1924.535449,-64505.240932
105.101825,-5329.482782,16728.654289,-68029.280222
105.104367,5033.400406,-8438.347739,-64811.679131
105.106910,22502.260637,-10066.800811,-64045.583633
105.109452,-2220.617826,-3108.864956,-70021.128517
105.111994,8882.471304,3849.070898,-64198.802732
105.114537,4885.359217,7402.059420,-66497.089226
105.117079,-5033.400406,-5329.482782,-69255.033019
105.119621,24722.878463,-6365.771101,-59142.572446
105.122163,-2220.617826,-6069.688724,-69255.033019
105.124706,-5625.565159,3849.070898,-70940.443115
105.127248,8734.430116,-2664.741391,-64811.679131
105.129790,9030.512492,5625.565159,-63279.488135
105.132332,-2072.576638,-10807.006753,-67416.403824
105.134875,4589.276840,-4737.318029,-67263.184724
105.137417,21021.848753,592.164754,-63585.926334
105.139959,-2220.617826,6069.688724,-68795.375720
105.142502,-1332.370696,11695.253884,-66956.746525
105.145044,14211.954086,6809.894666,-63739.145434
105.147586,-296.082377,-2516.700203,-67722.842023
105.150128,3997.112087,-2368.659014,-65271.336430
105.152671,15692.365970,4145.153275,-64045.583633
105.155213,6661.853478,-9622.677246,-66037.431928
105.157755,2368.659014,2516.700203,-66803.527426
105.160298,6957.935855,2664.741391,-65271.336430
105.162840,5773.606348,-7994.224174,-66803.527426
105.165382,5773.606348,-5625.565159,-66956.746525
105.167924,10362.883188,-6661.853478,-64352.021832
105.170467,11547.212695,888.247130,-64811.679131
105.173009,-4293.194464,1776.494261,-69101.813920
105.175551,2516.700203,6809.894666,-62513.392637
105.178093,12287.418637,2960.823768,-64658.460031
105.180636,-888.247130,-8734.430116,-69561.471218
105.183178,23094.425390,12731.542202,-63126.269035
105.185720,-18505.148550,14952.160028,-71093.662214
105.188263,6809.894666,-6513.812290,-61900.516238
105.190805,21021.848753,1628.453072,-62819.830836
105.193347,7105.977043,13767.830521,-70940.443115
105.195891,-6661.853478,11251.130318,-68795.375720
105.198435,1332.370696,21317.931130,-63892.364533
105.200978,7254.018232,8586.388927,-64198.802732
105.203522,7994.224174,-11695.253884,-64045.583633
105.206066,2516.700203,-6217.729913,-67876.061123
105.208610,-3256.906145,7846.182985,-70480.785816
105.211154,21169.889941,19393.395680,-62053.735338
105.213697,-148.041188,9326.594869,-68182.499322
105.216241,-8142.265362,-10510.924376,-68795.375720
105.218785,13175.665768,16876.695478,-63892.364533
105.221329,6809.894666,3997.112087,-67722.842023
105.223872,888.247130,-1480.411884,-65730.993728
105.226416,2368.659014,-1332.370696,-68182.499322
105.228960,4145.153275,-10807.006753,-67416.403824
105.231504,-2220.617826,-2072.576638,-67876.061123
105.234048,6513.812290,30644.525999,-66037.431928
105.236591,10362.883188,4589.276840,-65884.212828
105.239135,-1332.370696,-3849.070898,-68948.594820
105.241679,6365.771101,740.205942,-65118.117330
105.244223,1776.494261,4885.359217,-66190.651027
105.246766,6217.729913,3997.112087,-65424.555529
105.249310,15988.448347,-3997.112087,-64198.802732
105.251854,2220.617826,-8438.347739,-66803.527426
105.254398,-2368.659014,13175.665768,-67416.403824
105.256942,-1776.494261,21614.013506,-67109.965625
105.259485,5477.523971,10658.965565,-62666.611736
105.262029,23390.507767,-29016.072926,-61594.078039
105.264573,-4737.318029,-12139.377449,-72319.415011
105.267117,4885.359217,23094.425390,-66343.870127
105.269661,14211.954086,6513.812290,-63279.488135
105.272204,-3849.070898,-10214.842000,-66803.527426
105.274748,13471.748144,-8882.471304,-65424.555529
105.277292,-1480.411884,-4885.359217,-68335.718422
105.279836,9622.677246,-296.082377,-63279.488135
105.282379,12583.501014,-6217.729913,-65884.212828
105.284923,592.164754,-6513.812290,-66803.527426
105.287467,-3552.988522,-1332.370696,-67109.965625
105.290011,10362.883188,2368.659014,-65271.336430
105.292555,8438.347739,7698.141797,-67876.061123
105.295098,4441.235652,14359.995275,-66650.308326
105.297642,6809.894666,-17616.901420,-66037.431928
105.300186,740.205942,-10362.883188,-66956.746525
105.302729,15544.324782,3997.112087,-63279.488135
105.305273,4737.318029,-21614.013506,-67876.061123
105.307816,444.123565,888.247130,-66343.870127
105.310360,3108.864956,9474.636058,-66650.308326
105.312904,8438.347739,7402.059420,-64658.460031
105.315447,444.123565,-16284.530724,-67722.842023
105.317991,9918.759623,-4885.359217,-66956.746525
105.320534,13027.624579,-4441.235652,-64505.240932
105.323078,148.041188,-6809.894666,-68029.280222
105.325622,9030.512492,6365.771101,-64658.460031
105.328165,2664.741391,-10362.883188,-64198.802732
105.330709,-10066.800811,-7550.100608,-69255.033019
105.333252,18653.189738,5921.647536,-62513.392637
105.335796,13915.871710,-2368.659014,-64811.679131
105.338340,740.205942,24574.837274,-66497.089226
105.340883,0.000000,3108.864956,-65271.336430
105.343427,3701.029710,-23538.548956,-67109.965625
105.345970,6809.894666,11991.336260,-68488.937521
105.348514,11399.171507,27091.537477,-67263.184724
105.351058,-3404.947333,15248.242405,-66037.431928
105.353601,592.164754,-148.041188,-65577.774629
105.356145,5329.482782,-3256.906145,-65884.212828
105.358688,5477.523971,8438.347739,-66497.089226
105.361232,2664.741391,13471.748144,-66497.089226
105.363776,10214.842000,7105.977043,-66037.431928
105.366319,7994.224174,10362.883188,-66803.527426
105.368863,-148.041188,2220.617826,-66956.746525
105.371406,5181.441594,-12435.459826,-63432.707234
105.373950,15840.407159,-1332.370696,-65577.774629
105.376494,4293.194464,8438.347739,-67109.965625
105.379037,-296.082377,-3552.988522,-66037.431928
105.381581,10066.800811,-1924.535449,-65271.336430
105.384125,3256.906145,-2664.741391,-66037.431928
105.386668,888.247130,9622.677246,-66803.527426
105.389212,2960.823768,11547.212695,-66650.308326
105.391755,7402.059420,-9326.594869,-65884.212828
105.394299,9622.677246,1924.535449,-64505.240932
105.396843,5477.523971,8734.430116,-65424.555529
105.399387,1332.370696,11399.171507,-68795.375720
105.401931,4293.194464,9178.553681,-67569.622924
105.404475,12287.418637,-1332.370696,-63739.145434
105.407020,-1924.535449,3849.070898,-67569.622924
105.409564,-2072.576638,14508.036463,-66650.308326
105.412108,6661.853478,12139.377449,-62666.611736
105.414652,9474.636058,-18801.230927,-65577.774629
105.417196,5773.606348,-4441.235652,-68948.594820
105.419741,1036.288319,11547.212695,-67263.184724
105.422285,7105.977043,1480.411884,-64198.802732
105.424829,4737.318029,-6217.729913,-65424.555529
105.427373,16136.489536,-6365.771101,-63892.364533
105.429918,-2664.741391,-3552.988522,-68795.375720
105.432462,-5033.400406,-4441.235652,-70021.128517
105.435006,21614.013506,3108.864956,-61287.639840
105.437550,-1184.329507,-10955.047942,-67263.184724
105.440095,-4441.235652,1480.411884,-66956.746525
105.442639,4589.276840,-2960.823768,-67876.061123
105.445183,14656.077652,4589.276840,-66803.527426
105.447727,2960.823768,3256.906145,-66037.431928
105.450272,-592.164754,3552.988522,-68029.280222
105.452816,6513.812290,2368.659014,-66037.431928
105.455360,8438.347739,-11547.212695,-64352.021832
105.457904,-2960.823768,19985.560434,-70327.566716
105.460449,2516.700203,21910.095883,-68029.280222
105.462993,8734.430116,-18505.148550,-64045.583633
105.465537,1776.494261,-10807.006753,-66037.431928
105.468081,5181.441594,7846.182985,-66497.089226
105.470626,12139.377449,-4589.276840,-65577.774629
105.473170,1184.329507,1480.411884,-69561.471218
105.475714,12731.542202,8734.430116,-63892.364533
105.478258,-3552.988522,-9622.677246,-65730.993728
105.480802,-10362.883188,-6217.729913,-70787.224015
105.483347,21762.054695,8438.347739,-61440.858940
105.485891,5477.523971,-4737.318029,-67569.622924
105.488435,1628.453072,28719.990550,-69867.909418
105.490979,-1036.288319,13471.748144,-64045.583633
105.493524,2072.576638,-16284.530724,-66037.431928
105.496068,12287.418637,11843.295072,-66956.746525
105.498612,11399.171507,8734.430116,-66497.089226
105.501158,1332.370696,13027.624579,-66497.089226
105.503703,-2812.782580,10066.800811,-66190.651027
105.506248,2960.823768,1924.535449,-65424.555529
105.508794,6217.729913,6809.894666,-65271.336430
105.511339,5329.482782,5773.606348,-66037.431928
105.513884,4145.153275,7254.018232,-68488.937521
105.516430,9030.512492,3256.906145,-66037.431928
105.518975,1332.370696,-6809.894666,-66497.089226
105.521520,7402.059420,-3997.112087,-63892.364533
105.524066,15692.365970,10658.965565,-64505.240932
105.526611,-1776.494261,2220.617826,-69101.813920
105.529156,-2812.782580,6513.812290,-68029.280222
105.531702,5329.482782,6809.894666,-65118.117330
105.534247,14804.118840,6957.935855,-63432.707234
105.536792,-6217.729913,592.164754,-70480.785816
105.539338,3849.070898,5033.400406,-65577.774629
105.541883,13619.789333,10362.883188,-64045.583633
105.544429,1924.535449,11843.295072,-67109.965625
105.546974,2072.576638,11991.336260,-66190.651027
105.549519,148.041188,-888.247130,-68488.937521
105.552065,3552.988522,-296.082377,-67569.622924
105.554610,3701.029710,11991.336260,-65424.555529
105.557155,7105.977043,5477.523971,-64352.021832
105.559701,-5181.441594,8290.306550,-67569.622924
105.562246,3849.070898,-8438.347739,-67416.403824
105.564791,4441.235652,-7105.977043,-67876.061123
105.567337,18061.024985,4885.359217,-62053.735338
105.569882,-1924.535449,6957.935855,-69561.471218
105.572427,-592.164754,-5625.565159,-67569.622924
105.574973,8734.430116,-1628.453072,-65730.993728
105.577518,5921.647536,-16136.489536,-66956.746525
105.580064,19985.560434,-10807.006753,-61134.420740
105.582609,-6957.935855,-6069.688724,-70787.224015
105.585154,4885.359217,1036.288319,-64811.679131
105.587700,11103.089130,2368.659014,-61287.639840
105.590245,-2368.659014,-9178.553681,-68795.375720
105.592790,6513.812290,-17172.777854,-67722.842023
105.595336,21465.972318,-5921.647536,-63432.707234
105.597881,148.041188,5773.606348,-68948.594820
105.600426,-2368.659014,8438.347739,-69408.252119
105.602972,8734.430116,-24574.837274,-64352.021832
105.605518,6069.688724,7105.977043,-67416.403824
105.608063,3849.070898,7994.224174,-66650.308326
105.610609,4737.318029,-13471.748144,-65424.555529
105.613154,6957.935855,-7105.977043,-65271.336430
105.615700,4885.359217,-3404.947333,-67109.965625
105.618245,7254.018232,-3256.906145,-66497.089226
105.620791,4885.359217,296.082377,-67569.622924
105.623337,9326.594869,14508.036463,-64964.898230
105.625882,2812.782580,592.164754,-64352.021832
105.628428,-8438.347739,-5329.482782,-70174.347617
105.630973,5329.482782,-5921.647536,-67722.842023
105.633519,16876.695478,-5625.565159,-64045.583633
105.636064,8142.265362,28571.949361,-64964.898230
105.638610,-16432.571912,22502.260637,-70174.347617
105.641155,8438.347739,-10807.006753,-66037.431928
105.643701,17616.901420,-1184.329507,-62819.830836
105.646247,1480.411884,17764.942608,-70480.785816
105.648792,1628.453072,16580.613101,-66190.651027
105.651338,592.164754,6661.853478,-64198.802732
105.653883,4885.359217,7105.977043,-67109.965625
105.656429,9474.636058,4441.235652,-64964.898230
105.658974,9622.677246,2220.617826,-64198.802732
105.661520,-1924.535449,3404.947333,-71246.881314
105.664066,5773.606348,8734.430116,-67722.842023
105.666611,9474.636058,23390.507767,-62360.173537
105.669157,2960.823768,-10510.924376,-64964.898230
105.671702,2664.741391,6957.935855,-67722.842023
105.674248,12879.583391,8734.430116,-64045.583633
105.676793,4293.194464,11991.336260,-64505.240932
105.679339,-4441.235652,2812.782580,-67722.842023
105.681885,-3849.070898,-9178.553681,-69714.690318
105.684430,13767.830521,5773.606348,-63126.269035
105.686976,7698.141797,22946.384202,-64352.021832
105.689521,-7550.100608,13915.871710,-71093.662214
105.692067,9474.636058,9178.553681,-64658.460031
105.694612,12287.418637,2960.823768,-63892.364533
105.697158,-1480.411884,4885.359217,-69408.252119
105.699703,6069.688724,16580.613101,-64964.898230
105.702249,7698.141797,5477.523971,-64811.679131
105.704795,-7698.141797,6513.812290,-68488.937521
105.707341,-1776.494261,-7254.018232,-67416.403824
105.709888,19541.436869,-14508.036463,-62819.830836
105.712434,8142.265362,7550.100608,-66497.089226
105.714980,-8882.471304,1628.453072,-71400.100414
105.717526,13323.706956,4145.153275,-63432.707234
105.720072,8882.471304,-2220.617826,-64198.802732
105.722618,4145.153275,-23834.631332,-67263.184724
105.725164,7698.141797,-3997.112087,-66190.651027
105.727711,2220.617826,296.082377,-66956.746525
105.730257,11399.171507,0.000000,-64045.583633
105.732803,-2072.576638,-3701.029710,-64964.898230
105.735349,5329.482782,-18209.066173,-65271.336430
105.737895,7994.224174,-9918.759623,-67263.184724
105.740441,9178.553681,1184.329507,-66956.746525
105.742987,3701.029710,-2664.741391,-66803.527426
105.745534,-2072.576638,6217.729913,-70174.347617
105.748080,10510.924376,-34049.473332,-62973.049936
105.750626,14063.912898,-10955.047942,-63585.926334
105.753172,-3849.070898,16136.489536,-71553.319513
105.755718,2812.782580,3108.864956,-66497.089226
105.758264,10066.800811,-2220.617826,-62973.049936
105.760811,6957.935855,-4293.194464,-67416.403824
105.763357,5329.482782,-23242.466579,-66956.746525
105.765903,15248.242405,-3552.988522,-65424.555529
105.768449,-3701.029710,11103.089130,-68488.937521
105.770995,2812.782580,-2664.741391,-64505.240932
105.773541,6809.894666,296.082377,-66497.089226
105.776087,3997.112087,-11547.212695,-66956.746525
105.778634,5181.441594,-2368.659014,-69255.033019
105.781180,-5329.482782,29312.155303,-69867.909418
105.783726,4589.276840,8586.388927,-62053.735338
105.786272,13915.871710,-1628.453072,-63892.364533
105.788818,13323.706956,-2220.617826,-66650.308326
105.791364,-2516.700203,-5773.606348,-69101.813920
105.793910,5625.565159,15988.448347,-63585.926334
105.796457,-148.041188,21021.848753,-65730.993728
105.799003,-1480.411884,2072.576638,-67109.965625
105.801549,11399.171507,-592.164754,-64658.460031
105.804095,6809.894666,1776.494261,-67416.403824
105.806642,4589.276840,6957.935855,-66803.527426
105.809189,3849.070898,888.247130,-67569.622924
105.811736,4589.276840,23242.466579,-65271.336430
105.814283,-740.205942,8586.388927,-67109.965625
105.816830,4145.153275,4589.276840,-65577.774629
105.819377,5773.606348,9030.512492,-68029.280222
105.821924,5329.482782,-12139.377449,-64964.898230
105.824471,8290.306550,-7402.059420,-63739.145434
105.827018,-3108.864956,13027.624579,-69408.252119
105.829565,7254.018232,18653.189738,-68029.280222
105.832111,6809.894666,1628.453072,-64505.240932
105.834658,1924.535449,-2516.700203,-64505.240932
105.837205,9918.759623,-13471.748144,-65271.336430
105.839752,22354.219448,-17912.983796,-60521.544342
105.842299,-2516.700203,9622.677246,-68029.280222
105.844846,-2664.741391,12287.418637,-68795.375720
105.847393,5921.647536,12139.377449,-64045.583633
105.849940,4441.235652,-6809.894666,-64198.802732
105.852487,14211.954086,-19541.436869,-63432.707234
105.855034,14211.954086,-3552.988522,-65118.117330
105.857581,-6809.894666,9918.759623,-71246.881314
105.860128,8734.430116,-3849.070898,-64045.583633
105.862675,11843.295072,-7550.100608,-61900.516238
105.865222,10510.924376,-10955.047942,-67109.965625
105.867769,11843.295072,-4441.235652,-63126.269035
105.870316,-5625.565159,444.123565,-69714.690318
105.872863,7550.100608,2220.617826,-65271.336430
105.875410,9918.759623,5329.482782,-62666.611736
105.877957,-1480.411884,-17320.819043,-66956.746525
105.880503,8438.347739,-22058.137072,-66650.308326
105.883050,15988.448347,4589.276840,-65271.336430
105.885597,4885.359217,15988.448347,-65271.336430
105.888144,-4145.153275,6661.853478,-68948.594820
105.890691,7994.224174,-11251.130318,-65118.117330
105.893238,2368.659014,-12435.459826,-66803.527426
105.895785,13915.871710,-8142.265362,-61900.516238
105.898332,4589.276840,-3849.070898,-67569.622924
105.900879,2368.659014,-4441.235652,-67876.061123
105.903426,5921.647536,-6661.853478,-66497.089226
105.905973,2072.576638,888.247130,-67722.842023
105.908472,15100.201217,8142.265362,-63432.707234
105.910971,3108.864956,444.123565,-65424.555529
105.913470,-10066.800811,-14804.118840,-70787.224015
105.915969,11547.212695,2072.576638,-64964.898230
105.918468,11991.336260,4885.359217,-66497.089226
105.920967,6365.771101,27831.743419,-66650.308326
105.923466,-14359.995275,10214.842000,-67263.184724
105.925965,9770.718434,-20281.642811,-64811.679131
105.928464,17024.736666,1480.411884,-66190.651027
105.930963,6069.688724,14508.036463,-68029.280222
105.933462,-9178.553681,14656.077652,-69101.813920
105.935961,9770.718434,5181.441594,-62666.611736
105.938460,7698.141797,-3552.988522,-64198.802732
105.940959,0.000000,2664.741391,-67263.184724
105.943458,-1924.535449,18209.066173,-68795.375720
105.945957,2960.823768,14804.118840,-68488.937521
105.948456,11843.295072,5477.523971,-64811.679131
105.950955,0.000000,27683.702231,-65730.993728
105.953454,-2072.576638,3997.112087,-67109.965625
105.955952,2664.741391,-740.205942,-69101.813920
105.958451,10807.006753,6661.853478,-65118.117330
105.960950,7254.018232,-12139.377449,-64352.021832
105.963449,6069.688724,15396.283594,-63892.364533
105.965948,-1480.411884,19689.478057,-68795.375720
105.968447,5625.565159,7846.182985,-68029.280222
105.970946,2664.741391,9326.594869,-65577.774629
105.973445,1628.453072,28127.825796,-67569.622924
105.975944,1184.329507,-4737.318029,-67569.622924
105.978443,15988.448347,-8438.347739,-63126.269035
105.980942,4737.318029,6957.935855,-65730.993728
105.983441,6069.688724,148.041188,-65424.555529
105.985940,-5329.482782,10658.965565,-67416.403824
105.988439,7846.182985,-8142.265362,-63585.926334
105.990938,8734.430116,-4737.318029,-65730.993728
105.993437,6809.894666,888.247130,-67569.622924
105.995936,9030.512492,-6809.894666,-66497.089226
105.998435,2664.741391,296.082377,-66956.746525
106.000934,8586.388927,-16728.654289,-65577.774629
106.003433,6661.853478,-16876.695478,-68795.375720
106.005932,11991.336260,4441.235652,-63279.488135
106.008443,-2072.576638,6217.729913,-69101.813920
106.010954,9030.512492,-9178.553681,-65577.774629
106.013465,1924.535449,-4145.153275,-65271.336430
106.015977,2072.576638,-3849.070898,-65424.555529
106.018488,11695.253884,9030.512492,-65424.555529
106.020999,6069.688724,-18653.189738,-67109.965625
106.023510,4589.276840,-10658.965565,-66190.651027
106.026022,10955.047942,-6069.688724,-64198.802732
106.028533,6809.894666,-148.041188,-66190.651027
106.031044,-1924.535449,11251.130318,-69101.813920
106.033555,7994.224174,-2960.823768,-62666.611736
106.036067,6957.935855,-12879.583391,-65271.336430
106.038578,5625.565159,0.000000,-67569.622924
106.041089,4441.235652,-4885.359217,-67109.965625
106.043600,17912.983796,1628.453072,-63585.926334
106.046112,-6217.729913,-2664.741391,-69714.690318
106.048623,-7846.182985,-14804.118840,-68182.499322
106.051134,19985.560434,-4589.276840,-61747.297139
106.053645,10807.006753,-8142.265362,-65271.336430
106.056157,3256.906145,14804.118840,-69867.909418
106.058668,-10955.047942,27239.578666,-68948.594820
106.061179,10362.883188,-2072.576638,-60674.763442
106.063690,12435.459826,-18061.024985,-65271.336430
106.066201,10658.965565,1332.370696,-68642.156621
106.068713,1480.411884,5773.606348,-68029.280222
106.071224,-8290.306550,25907.207970,-66956.746525
106.073735,12731.542202,9770.718434,-62053.735338
106.076246,11251.130318,6661.853478,-63432.707234
106.078758,-6365.771101,-592.164754,-71093.662214
106.081269,13175.665768,1776.494261,-64658.460031
106.083780,11399.171507,28127.825796,-65118.117330
106.086291,-6809.894666,22502.260637,-70174.347617
106.088803,3108.864956,888.247130,-64505.240932
106.091314,8438.347739,-3108.864956,-64045.583633
106.093825,11103.089130,9030.512492,-65730.993728
106.096336,3552.988522,2368.659014,-67569.622924
106.098848,-6365.771101,3404.947333,-68335.718422
106.101359,148.041188,22502.260637,-68335.718422
106.103870,19985.560434,13915.871710,-62053.735338
106.106381,-1776.494261,1924.535449,-68488.937521
106.108903,-148.041188,8734.430116,-67109.965625
106.111425,7550.100608,2664.741391,-66650.308326
106.113947,-4441.235652,14211.954086,-70174.347617
106.116469,12731.542202,13027.624579,-62053.735338
106.118991,7994.224174,-7698.141797,-64964.898230
106.121513,-10510.924376,5033.400406,-71400.100414
106.124035,10807.006753,-1036.288319,-63126.269035
106.126557,9178.553681,-4145.153275,-66343.870127
106.129079,6661.853478,19393.395680,-66497.089226
106.131601,8882.471304,-7846.182985,-64811.679131
106.134123,-3404.947333,-1924.535449,-69255.033019
106.136645,4737.318029,-1036.288319,-66343.870127
106.139167,16728.654289,3701.029710,-63279.488135
106.141688,3108.864956,148.041188,-67109.965625
106.144210,-3108.864956,-4737.318029,-69714.690318
106.146732,14508.036463,-11547.212695,-62206.954438
106.149254,592.164754,444.123565,-66650.308326
106.151776,-4293.194464,888.247130,-68948.594820
106.154298,5773.606348,-296.082377,-69561.471218
106.156820,13915.871710,14211.954086,-64811.679131
106.159342,5477.523971,1924.535449,-64505.240932
106.161864,-4145.153275,-13471.748144,-68948.594820
106.164386,12139.377449,-17172.777854,-65271.336430
106.166908,14508.036463,-3849.070898,-63892.364533
106.169430,-2368.659014,5921.647536,-67109.965625
106.171952,-1036.288319,-5477.523971,-67569.622924
106.174474,8438.347739,-21021.848753,-66803.527426
106.176996,15100.201217,-15100.201217,-65730.993728
106.179517,296.082377,-740.205942,-66037.431928
106.182039,3108.864956,888.247130,-63892.364533
106.184561,10510.924376,-2664.741391,-65884.212828
106.187083,-3108.864956,-3256.906145,-70480.785816
106.189605,13767.830521,1924.535449,-64964.898230
106.192127,5477.523971,18653.189738,-63892.364533
106.194649,-444.123565,-3701.029710,-64658.460031
106.197171,1332.370696,-14063.912898,-68029.280222
106.199693,9918.759623,14508.036463,-67722.842023
106.202215,1480.411884,23834.631332,-69408.252119
106.204737,8142.265362,12435.459826,-62819.830836
106.207259,13767.830521,6069.688724,-60981.201641
106.209744,-6957.935855,444.123565,-70940.443115
106.212228,8586.388927,1924.535449,-65271.336430
106.214713,13767.830521,12287.418637,-63892.364533
106.217198,-3849.070898,23834.631332,-71093.662214
106.219683,7698.141797,16728.654289,-64658.460031
106.222168,5181.441594,1480.411884,-63739.145434
106.224652,1924.535449,-740.205942,-66650.308326
106.227137,6809.894666,9178.553681,-67416.403824
106.229622,10658.965565,1184.329507,-65424.555529
106.232107,3108.864956,12287.418637,-65577.774629
106.234592,-1332.370696,30644.525999,-67263.184724
106.237076,6661.853478,3849.070898,-66497.089226
106.239561,4589.276840,4885.359217,-66650.308326
106.242046,10510.924376,8290.306550,-63279.488135
106.244531,3552.988522,4589.276840,-68335.718422
106.247016,-7105.977043,8882.471304,-70021.128517
106.249500,14063.912898,13323.706956,-61287.639840
106.251985,7402.059420,-4885.359217,-65424.555529
106.254470,-10955.047942,10955.047942,-70787.224015
106.256955,5033.400406,-592.164754,-67263.184724
106.259440,2220.617826,3997.112087,-69867.909418
106.261924,20429.683999,26203.290347,-61440.858940
106.264409,-6809.894666,-17320.819043,-70634.004916
106.266894,-1332.370696,-8290.306550,-66956.746525
106.269379,23686.590144,-592.164754,-61900.516238
106.271864,-4293.194464,-2368.659014,-70940.443115
106.274348,11251.130318,296.082377,-63739.145434
106.276833,5033.400406,3997.112087,-67722.842023
106.279318,-1332.370696,-13175.665768,-68029.280222
106.281803,6957.935855,-4145.153275,-64198.802732
106.284288,6217.729913,14211.954086,-65271.336430
106.286772,16728.654289,-16432.571912,-64658.460031
106.289273,5033.400406,-5921.647536,-67876.061123
106.291773,444.123565,7994.224174,-66956.746525
106.294273,10510.924376,10066.800811,-63432.707234
106.296773,6809.894666,-5329.482782,-65424.555529
106.299273,-3256.906145,-16432.571912,-70021.128517
106.301773,10510.924376,-10658.965565,-63739.145434
106.304274,9770.718434,-2220.617826,-65118.117330
106.306774,2664.741391,3552.988522,-69255.033019
106.309274,-1776.494261,11251.130318,-67876.061123
106.311774,6809.894666,3701.029710,-64505.240932
106.314274,2072.576638,-8142.265362,-66803.527426
106.316774,3849.070898,-10214.842000,-66956.746525
106.319275,15840.407159,-6661.853478,-65118.117330
106.321775,2812.782580,31828.855506,-68795.375720
106.324275,-8734.430116,15248.242405,-66497.089226
106.326775,7994.224174,-16432.571912,-64045.583633
106.329275,13175.665768,5921.647536,-65884.212828
106.331775,7698.141797,888.247130,-66037.431928
106.334276,2220.617826,2220.617826,-68182.499322
106.336776,8290.306550,-5625.565159,-62819.830836
106.339276,444.123565,14359.995275,-66497.089226
106.341776,-2664.741391,6217.729913,-67722.842023
106.344276,11399.171507,8290.306550,-65271.336430
106.346776,9178.553681,3404.947333,-68335.718422
106.349277,-3108.864956,17468.860231,-67569.622924
106.351777,13175.665768,-10362.883188,-62053.735338
106.354277,-1332.370696,15544.324782,-68795.375720
106.356777,-1924.535449,19245.354492,-68182.499322
106.359277,11695.253884,8734.430116,-63432.707234
106.361777,6661.853478,2220.617826,-65730.993728
106.364278,-592.164754,3404.947333,-66650.308326
106.366778,1628.453072,2368.659014,-67416.403824
106.369278,12583.501014,9326.594869,-66037.431928
106.371778,-148.041188,13619.789333,-67569.622924
106.374278,7698.141797,9474.636058,-65577.774629
106.376778,7254.018232,3256.906145,-66956.746525
106.379279,-5329.482782,7550.100608,-68795.375720
106.381779,13175.665768,6365.771101,-62973.049936
106.384279,-1924.535449,11251.130318,-65884.212828
106.386779,9918.759623,-22798.343014,-64505.240932
106.389293,1480.411884,-13175.665768,-69255.033019
106.391808,8142.265362,13471.748144,-64198.802732
106.394322,3552.988522,1184.329507,-65424.555529
106.396837,2664.741391,-7994.224174,-67263.184724
106.399351,10807.006753,-6809.894666,-65884.212828
106.401866,-740.205942,-9918.759623,-68795.375720
106.404380,18209.066173,-888.247130,-60981.201641
106.406894,1628.453072,-3701.029710,-69255.033019
106.409409,-1036.288319,-11843.295072,-67416.403824
106.411923,4145.153275,14359.995275,-64658.460031
106.414438,13767.830521,16432.571912,-63585.926334
106.416952,-2220.617826,6957.935855,-71706.538613
106.419466,5625.565159,592.164754,-67109.965625
106.421981,10362.883188,-22946.384202,-64352.021832
106.424495,-2220.617826,15840.407159,-70174.347617
106.427010,3997.112087,16876.695478,-67109.965625
106.429524,6217.729913,-19689.478057,-65730.993728
106.432039,2664.741391,-5773.606348,-64811.679131
106.434553,8586.388927,-8290.306550,-65577.774629
106.437067,12731.542202,6661.853478,-65118.117330
106.439582,6513.812290,8142.265362,-65884.212828
106.442096,-10955.047942,3108.864956,-70327.566716
106.444611,13767.830521,2072.576638,-63739.145434
106.447125,16136.489536,-19097.313304,-62819.830836
106.449639,-592.164754,-7994.224174,-69408.252119
106.452154,-5033.400406,26499.372724,-69101.813920
106.454668,13619.789333,3997.112087,-59755.448844
106.457183,6217.729913,-10362.883188,-66803.527426
106.459697,-740.205942,6365.771101,-72472.634111
106.462212,5181.441594,10807.006753,-68795.375720
106.464726,-1924.535449,27239.578666,-66497.089226
106.467240,5921.647536,24574.837274,-61747.297139
106.469755,13471.748144,-9326.594869,-64658.460031
106.472269,-6217.729913,7254.018232,-71706.538613
106.474784,11103.089130,4145.153275,-64045.583633
106.477298,9622.677246,17616.901420,-66956.746525
106.479813,888.247130,-6513.812290,-66650.308326
106.482327,12435.459826,3552.988522,-62360.173537
106.484841,-4145.153275,11399.171507,-67722.842023
106.487356,8142.265362,-3701.029710,-64658.460031
106.489883,11399.171507,2664.741391,-64198.802732
106.492409,3552.988522,13471.748144,-66343.870127
106.494936,3108.864956,15988.448347,-66343.870127
106.497463,2664.741391,8290.306550,-66956.746525
106.499990,2960.823768,12879.583391,-67416.403824
106.502516,17024.736666,2072.576638,-62973.049936
106.505043,-12287.418637,1184.329507,-72932.291410
106.507570,8734.430116,17616.901420,-64811.679131
106.510097,14508.036463,6809.894666,-62053.735338
106.512623,-14211.954086,5477.523971,-71246.881314
106.515150,5033.400406,-8438.347739,-64811.679131
106.517677,14656.077652,3997.112087,-66190.651027
106.520204,8734.430116,16136.489536,-65730.993728
106.522730,-1184.329507,-6661.853478,-66956.746525
106.525257,888.247130,-2516.700203,-66037.431928
106.527784,8734.430116,-10362.883188,-67416.403824
106.530311,7698.141797,-9770.718434,-63892.364533
106.532837,15248.242405,6365.771101,-61287.639840
106.535364,-12139.377449,1184.329507,-74617.701505
106.537891,10362.883188,-3256.906145,-64352.021832
106.540418,9918.759623,-9622.677246,-62819.830836
106.542944,-888.247130,-24574.837274,-67722.842023
106.545471,14359.995275,-8734.430116,-67263.184724
106.547998,4145.153275,12287.418637,-68948.594820
106.550525,7105.977043,-35529.885216,-62666.611736
106.553051,4441.235652,1924.535449,-66190.651027
106.555578,2220.617826,17616.901420,-69408.252119
106.558105,6513.812290,-4589.276840,-65424.555529
106.560632,3997.112087,-17024.736666,-65118.117330
106.563158,296.082377,-11991.336260,-70787.224015
106.565685,17616.901420,6957.935855,-61900.516238
106.568212,7105.977043,16580.613101,-62819.830836
106.570739,-10658.965565,2812.782580,-70327.566716
106.573265,8882.471304,-6809.894666,-66956.746525
106.575792,18653.189738,-13767.830521,-64658.460031
106.578319,888.247130,26203.290347,-65577.774629
106.580846,-6957.935855,10214.842000,-65577.774629
106.583372,5773.606348,-15988.448347,-66190.651027
106.585899,14063.912898,4589.276840,-66190.651027
106.588426,11103.089130,10362.883188,-64811.679131
106.590962,-12139.377449,11991.336260,-72472.634111
106.593498,6809.894666,9030.512492,-62819.830836
106.596034,14063.912898,12731.542202,-61287.639840
106.598570,-1628.453072,1628.453072,-67569.622924
106.601106,148.041188,-3849.070898,-69561.471218
106.603642,12583.501014,9326.594869,-66343.870127
106.606178,12435.459826,-11695.253884,-63739.145434
106.608714,7846.182985,3997.112087,-65730.993728
106.611250,-8734.430116,5477.523971,-70940.443115
106.613787,1184.329507,30200.402434,-67109.965625
106.616323,8290.306550,11547.212695,-64352.021832
106.618859,7698.141797,-2368.659014,-64811.679131
106.621395,3552.988522,-11547.212695,-66650.308326
106.623931,2072.576638,-13175.665768,-67722.842023
106.626467,6661.853478,16136.489536,-67109.965625
106.629003,6365.771101,16136.489536,-66497.089226
106.631539,-3256.906145,6365.771101,-69255.033019
106.634075,2664.741391,1924.535449,-68182.499322
106.636611,15692.365970,3849.070898,-62360.173537
106.639147,-9326.594869,12435.459826,-69867.909418
106.641683,888.247130,-8734.430116,-68335.718422
106.644219,17320.819043,-8142.265362,-63432.707234
106.646755,9622.677246,-1924.535449,-65271.336430
106.649292,-11399.171507,-2960.823768,-70327.566716
106.651828,2368.659014,-7994.224174,-67263.184724
106.654364,11103.089130,-19393.395680,-64811.679131
106.656900,11695.253884,-4737.318029,-66037.431928
106.659436,7550.100608,2516.700203,-65424.555529
106.661972,-3997.112087,-8882.471304,-70940.443115
106.664508,11991.336260,-10955.047942,-62666.611736
106.667044,3552.988522,-5477.523971,-64352.021832
106.669580,888.247130,-9770.718434,-66497.089226
106.672116,14359.995275,-18209.066173,-64658.460031
106.674652,3404.947333,15396.283594,-66803.527426
106.677188,5181.441594,-6809.894666,-63892.364533
106.679724,8290.306550,-1480.411884,-65577.774629
106.682260,1924.535449,888.247130,-69561.471218
106.684797,3997.112087,-4145.153275,-65884.212828
106.687333,10362.883188,-11695.253884,-63585.926334
106.689869,7105.977043,-8882.471304,-67416.403824
106.692413,1332.370696,5033.400406,-68488.937521
106.694957,6069.688724,5625.565159,-64352.021832
106.697501,-1628.453072,-2072.576638,-68335.718422
106.700045,6365.771101,-8882.471304,-66037.431928
106.702589,10510.924376,-4885.359217,-66343.870127
106.705133,9326.594869,20133.601622,-64045.583633
106.707677,-7402.059420,296.082377,-67722.842023
106.710221,6513.812290,-5033.400406,-66497.089226
106.712765,13767.830521,9622.677246,-66956.746525
106.715309,-3256.906145,11103.089130,-70021.128517
106.717853,9030.512492,14952.160028,-64045.583633
106.720397,-5033.400406,6217.729913,-68182.499322
106.722941,-888.247130,10955.047942,-66956.746525
106.725485,9770.718434,11695.253884,-62360.173537
106.728029,7550.100608,13915.871710,-66803.527426
106.730573,5181.441594,-7402.059420,-69867.909418
106.733117,-3256.906145,24130.713709,-68642.156621
106.735661,5329.482782,11103.089130,-64352.021832
106.738205,4589.276840,-4885.359217,-67109.965625
106.740749,3849.070898,-5329.482782,-67263.184724
106.743293,6957.935855,12139.377449,-64964.898230
106.745837,-3997.112087,15840.407159,-68642.156621
106.748380,3997.112087,3849.070898,-66956.746525
106.750924,15100.201217,12879.583391,-63279.488135
106.753468,-2960.823768,9770.718434,-63126.269035
106.756012,-13175.665768,888.247130,-73545.167808
106.758556,20873.807564,4885.359217,-60368.325242
106.761100,3552.988522,5181.441594,-66650.308326
106.763644,-10807.006753,2664.741391,-70327.566716
106.766188,5625.565159,7846.182985,-64505.240932
106.768732,22354.219448,-7994.224174,-60368.325242
106.771276,-888.247130,-12139.377449,-70940.443115
106.773820,-7550.100608,14063.912898,-70327.566716
106.776364,20133.601622,1332.370696,-58989.353346
106.778908,2072.576638,740.205942,-67876.061123
106.781452,1628.453072,-17616.901420,-70174.347617
106.783996,444.123565,-2812.782580,-68488.937521
106.786540,11251.130318,9326.594869,-64964.898230
106.789084,8734.430116,-10510.924376,-64811.679131
106.791628,-4885.359217,-5625.565159,-68029.280222
106.794138,1036.288319,2960.823768,-66343.870127
106.796647,18949.272115,-13619.789333,-62053.735338
106.799157,7105.977043,-16728.654289,-68795.375720
106.801666,-296.082377,-5921.647536,-68795.375720
106.804176,9918.759623,-3108.864956,-64352.021832
106.806685,8438.347739,-1924.535449,-65577.774629
106.809195,7846.182985,-5329.482782,-64811.679131
106.811704,5181.441594,-7105.977043,-65884.212828
106.814214,6661.853478,-15248.242405,-67569.622924
106.816723,-1184.329507,-5033.400406,-67876.061123
106.819233,17468.860231,2812.782580,-59755.448844
106.821742,-3108.864956,-6809.894666,-69561.471218
106.824252,2072.576638,-12583.501014,-68488.937521
106.826761,13027.624579,-148.041188,-66343.870127
106.829271,2960.823768,23390.507767,-65730.993728
106.831780,-2072.576638,5329.482782,-64964.898230
106.834290,6809.894666,-5181.441594,-67416.403824
106.836799,1628.453072,4589.276840,-71093.662214
106.839309,2368.659014,25463.084405,-68029.280222
106.841818,21910.095883,6365.771101,-58376.476948
106.844328,-12287.418637,-14804.118840,-71246.881314
106.846837,148.041188,15544.324782,-66037.431928
106.849347,16432.571912,19689.478057,-62053.735338
106.851856,0.000000,2960.823768,-69867.909418
106.854366,7254.018232,-5773.606348,-66343.870127
106.856875,14211.954086,-5477.523971,-64198.802732
106.859385,7254.018232,-296.082377,-62973.049936
106.861894,1480.411884,18505.148550,-67569.622924
106.864404,8882.471304,-1776.494261,-64198.802732
106.866913,3108.864956,4589.276840,-65730.993728
106.869423,-2368.659014,29904.320057,-68948.594820
106.871932,9918.759623,9326.594869,-63892.364533
106.874442,3108.864956,3849.070898,-68029.280222
106.876951,16580.613101,-296.082377,-62666.611736
106.879461,888.247130,-6809.894666,-68795.375720
106.881970,-4441.235652,13323.706956,-68948.594820
106.884480,18357.107362,17764.942608,-61134.420740
106.886989,1628.453072,25463.084405,-64505.240932
106.889499,2812.782580,-39823.079680,-67876.061123
106.892008,10066.800811,-15544.324782,-65884.212828
106.894532,2664.741391,23242.466579,-67569.622924
106.897056,3997.112087,592.164754,-65884.212828
106.899579,2368.659014,1628.453072,-65884.212828
106.902103,9030.512492,-3256.906145,-64964.898230
106.904626,10510.924376,-12139.377449,-66650.308326
106.907150,-148.041188,-3849.070898,-68182.499322
106.909673,4885.359217,9918.759623,-68029.280222
106.912197,10955.047942,2220.617826,-62666.611736
106.914721,296.082377,17764.942608,-64811.679131
106.917244,-1332.370696,-22798.343014,-68488.937521
106.919768,14508.036463,-2368.659014,-65730.993728
106.922291,9918.759623,14952.160028,-65424.555529
106.924815,2812.782580,2516.700203,-66343.870127
106.927339,-1332.370696,-2072.576638,-68642.156621
106.929862,10807.006753,-5181.441594,-63739.145434
106.932386,10362.883188,-4145.153275,-63585.926334
106.934909,6513.812290,2220.617826,-66650.308326
106.937433,-6513.812290,5773.606348,-72625.853210
106.939956,3552.988522,-444.123565,-65577.774629
106.942480,6957.935855,3552.988522,-64198.802732
106.945004,5329.482782,-6365.771101,-67109.965625
106.947527,11251.130318,-740.205942,-65577.774629
106.950051,15248.242405,17912.983796,-62053.735338
106.952574,-9326.594869,3997.112087,-69255.033019
106.955098,-5181.441594,-8142.265362,-67722.842023
106.957622,24722.878463,7105.977043,-61287.639840
106.960145,11843.295072,6957.935855,-66343.870127
106.962669,-5477.523971,-8290.306550,-70327.566716
106.965192,-13767.830521,-444.123565,-70021.128517
106.967716,17764.942608,17912.983796,-60981.201641
106.970239,9326.594869,1036.288319,-64505.240932
106.972763,-7254.018232,-1184.329507,-71553.319513
106.975287,9622.677246,29904.320057,-66650.308326
106.977810,10807.006753,296.082377,-64811.679131
106.980334,-888.247130,4293.194464,-67876.061123
106.982857,-3108.864956,7402.059420,-67876.061123
106.985381,7846.182985,10658.965565,-63585.926334
106.987905,9918.759623,11251.130318,-64811.679131
106.990428,-7254.018232,10955.047942,-70940.443115
106.992952,-1036.288319,5625.565159,-68029.280222
106.995487,8142.265362,-4145.153275,-66190.651027
106.998023,12731.542202,3997.112087,-64352.021832
107.000558,2072.576638,1924.535449,-68029.280222
107.003094,-5033.400406,6661.853478,-69714.690318
107.005630,10658.965565,14063.912898,-63126.269035
107.008165,2368.659014,7698.141797,-64658.460031
107.010701,5773.606348,-29460.196492,-66343.870127
107.013236,-5181.441594,-3552.988522,-72319.415011
107.015772,10658.965565,19837.519246,-70174.347617
107.018307,15100.201217,7254.018232,-60368.325242
107.020843,-592.164754,-15396.283594,-67722.842023
107.023378,2812.782580,-3552.988522,-69101.813920
107.025914,19985.560434,-7402.059420,-61594.078039
107.028449,-3256.906145,-3849.070898,-70480.785816
107.030985,2516.700203,4441.235652,-67722.842023
107.033521,16432.571912,-4589.276840,-61594.078039
107.036056,-7846.182985,-18061.024985,-68795.375720
107.038592,1628.453072,0.000000,-67416.403824
107.041127,12435.459826,7994.224174,-66190.651027
107.043663,13323.706956,-30792.567187,-63432.707234
107.046198,3849.070898,-1184.329507,-68795.375720
107.048734,1480.411884,17468.860231,-68488.937521
107.051269,5181.441594,-15840.407159,-65884.212828
107.053805,2812.782580,-5477.523971,-66190.651027
107.056341,12139.377449,0.000000,-65424.555529
107.058876,2664.741391,-6069.688724,-67416.403824
107.061412,-4737.318029,-2220.617826,-66343.870127
107.063947,20281.642811,9178.553681,-62053.735338
107.066483,-8438.347739,-2220.617826,-70787.224015
107.069018,18801.230927,-2516.700203,-63432.707234
107.071554,-1036.288319,15544.324782,-65118.117330
107.074089,3849.070898,1480.411884,-62053.735338
107.076625,10066.800811,3552.988522,-66956.746525
107.079161,2516.700203,15396.283594,-69714.690318
107.081696,3552.988522,8734.430116,-65118.117330
107.084232,9918.759623,14952.160028,-61134.420740
107.086767,1480.411884,1776.494261,-65424.555529
107.089303,-4885.359217,0.000000,-68488.937521
107.091838,9770.718434,10362.883188,-62513.392637
107.094374,15988.448347,7105.977043,-64198.802732
107.096919,3849.070898,15100.201217,-69255.033019
107.099464,-5033.400406,1924.535449,-69561.471218
107.102009,9622.677246,5181.441594,-62360.173537
107.104554,6661.853478,6809.894666,-66190.651027
107.107100,3997.112087,2664.741391,-66037.431928
107.109645,-5033.400406,15544.324782,-68182.499322
107.112190,6661.853478,8734.430116,-64964.898230
107.114735,14656.077652,-2960.823768,-64811.679131
107.117280,-2516.700203,1480.411884,-69255.033019
107.119825,-5329.482782,15544.324782,-69867.909418
107.122371,-1776.494261,16432.571912,-68029.280222
107.124916,15248.242405,14656.077652,-61900.516238
107.127461,-3701.029710,-1924.535449,-66037.431928
107.130006,5329.482782,-34345.555709,-67876.061123
107.132551,4737.318029,-5181.441594,-68642.156621
107.135096,1628.453072,20873.807564,-67722.842023
107.137641,6809.894666,2812.782580,-64198.802732
107.140187,-148.041188,-13027.624579,-68795.375720
107.142732,2812.782580,-10807.006753,-66803.527426
107.145277,14508.036463,2812.782580,-64658.460031
107.147822,4441.235652,-1480.411884,-67416.403824
107.150367,2516.700203,-11103.089130,-68795.375720
107.152912,1480.411884,7550.100608,-66650.308326
107.155458,-148.041188,2664.741391,-66343.870127
107.158003,9030.512492,-22058.137072,-64505.240932
107.160548,11547.212695,-9770.718434,-66803.527426
107.163093,8438.347739,18357.107362,-66497.089226
107.165638,9326.594869,-2812.782580,-64352.021832
107.168183,-1184.329507,-7550.100608,-69101.813920
107.170728,6365.771101,-11547.212695,-65730.993728
107.173274,13323.706956,-14063.912898,-63739.145434
107.175819,9622.677246,6069.688724,-63892.364533
107.178364,7105.977043,4441.235652,-65424.555529
107.180909,-8734.430116,-6365.771101,-69867.909418
107.183454,8290.306550,2220.617826,-63585.926334
107.185999,19689.478057,-23390.507767,-61134.420740
107.188545,9622.677246,13619.789333,-67569.622924
107.191090,-14656.077652,11251.130318,-71706.538613
107.193635,8734.430116,740.205942,-62513.392637
107.196180,15692.365970,2960.823768,-64658.460031
107.198694,7698.141797,-296.082377,-68642.156621
107.201208,-5329.482782,-444.123565,-69714.690318
107.203721,-5773.606348,19097.313304,-67876.061123
107.206235,15692.365970,7994.224174,-60521.544342
107.208749,-2812.782580,3256.906145,-67569.622924
107.211263,-740.205942,444.123565,-69561.471218
107.213777,22502.260637,3552.988522,-62513.392637
107.216290,3108.864956,-2664.741391,-68795.375720
107.218804,2368.659014,-7550.100608,-66190.651027
107.221318,6809.894666,11103.089130,-65271.336430
107.223832,4293.194464,2072.576638,-66650.308326
107.226346,6069.688724,3108.864956,-64964.898230
107.228859,6365.771101,22058.137072,-65730.993728
107.231373,1924.535449,19393.395680,-69255.033019
107.233887,2664.741391,9622.677246,-65730.993728
107.236401,15544.324782,-7698.141797,-62973.049936
107.238915,1184.329507,2368.659014,-67722.842023
107.241428,1776.494261,4885.359217,-66956.746525
107.243942,-1480.411884,17172.777854,-68335.718422
107.246456,-4441.235652,16432.571912,-69867.909418
107.248970,18653.189738,-10807.006753,-61134.420740
107.251484,17172.777854,-21465.972318,-64964.898230
107.253997,-10955.047942,12139.377449,-68029.280222
107.256511,-6217.729913,-4885.359217,-69867.909418
107.259025,18801.230927,11547.212695,-60521.544342
107.261539,3701.029710,-5625.565159,-68795.375720
107.264053,-5329.482782,-17764.942608,-69867.909418
107.266566,21169.889941,-1332.370696,-61134.420740
107.269080,148.041188,-5625.565159,-68029.280222
107.271594,740.205942,6809.894666,-67416.403824
107.274108,1480.411884,-19245.354492,-65577.774629
107.276622,12139.377449,-148.041188,-64964.898230
107.279135,9474.636058,-18949.272115,-66650.308326
107.281649,4441.235652,1480.411884,-65884.212828
107.284163,-740.205942,19985.560434,-67722.842023
107.286677,8586.388927,0.000000,-65577.774629
107.289191,2220.617826,-15544.324782,-67722.842023
107.291704,2664.741391,-3849.070898,-67722.842023
107.294218,20133.601622,12731.542202,-60215.106143
107.296732,-15248.242405,-4145.153275,-71246.881314
107.299260,11103.089130,-5181.441594,-64658.460031
107.301788,18801.230927,-4145.153275,-63432.707234
107.304316,-8734.430116,3256.906145,-73238.729609
107.306844,-18801.230927,6513.812290,-73698.386908
107.309371,11991.336260,5625.565159,-60674.763442
107.311899,19985.560434,-1480.411884,-61900.516238
107.314427,1332.370696,2812.782580,-72012.976812
107.316955,-6661.853478,12731.542202,-71093.662214
107.319483,18357.107362,13471.748144,-59142.572446
107.322011,-6513.812290,10510.924376,-69255.033019
107.324539,-1332.370696,-6957.935855,-66956.746525
107.327067,6217.729913,15396.283594,-66343.870127
107.329594,5033.400406,31532.773129,-67876.061123
107.332122,5477.523971,148.041188,-66343.870127
107.334650,-3849.070898,18505.148550,-69101.813920
107.337178,-888.247130,4589.276840,-66497.089226
107.339706,6809.894666,7994.224174,-64505.240932
107.342234,6809.894666,9178.553681,-66037.431928
107.344762,-2516.700203,13175.665768,-68795.375720
107.347290,7105.977043,16580.613101,-65424.555529
107.349818,13619.789333,-2220.617826,-64352.021832
107.352345,-5181.441594,7105.977043,-69561.471218
107.354873,3552.988522,7994.224174,-65884.212828
107.357401,13323.706956,1480.411884,-64505.240932
107.359929,2664.741391,12583.501014,-65884.212828
107.362457,-2960.823768,-18801.230927,-69561.471218
107.364985,7698.141797,-12287.418637,-66956.746525
107.367513,17912.983796,6513.812290,-62053.735338
107.370041,-6661.853478,888.247130,-69714.690318
107.372568,740.205942,-10066.800811,-67109.965625
107.375096,14359.995275,-6069.688724,-62819.830836
107.377624,7846.182985,-5625.565159,-68029.280222
107.380152,4589.276840,-10510.924376,-65424.555529
107.382680,7698.141797,-3256.906145,-66497.089226
107.385208,10362.883188,2368.659014,-63739.145434
107.387736,2960.823768,-10214.842000,-64198.802732
107.390264,5773.606348,-9474.636058,-66343.870127
107.392791,10214.842000,1480.411884,-67416.403824
107.395319,11251.130318,-18949.272115,-63279.488135
107.397847,6069.688724,11843.295072,-67109.965625
107.400387,2368.659014,-4145.153275,-69408.252119
107.402926,8290.306550,-19245.354492,-63279.488135
107.405466,12435.459826,6069.688724,-65118.117330
107.408005,-9918.759623,-3404.947333,-71400.100414
107.410544,14952.160028,2664.741391,-62513.392637
107.413084,15100.201217,-1184.329507,-63432.707234
107.415623,-1184.329507,5477.523971,-69867.909418
107.418163,4441.235652,-3404.947333,-66190.651027
107.420702,20133.601622,22206.178260,-60827.982541
107.423242,-21169.889941,19245.354492,-71859.757712
107.425781,7846.182985,-9770.718434,-65577.774629
107.428321,18949.272115,13323.706956,-64352.021832
107.430860,4441.235652,11251.130318,-67569.622924
107.433399,-7254.018232,5773.606348,-71093.662214
107.435939,8438.347739,9326.594869,-62513.392637
107.438478,7105.977043,9918.759623,-63432.707234
107.441018,2368.659014,13323.706956,-65884.212828
107.443557,5181.441594,-7994.224174,-68182.499322
107.446097,1628.453072,21910.095883,-70480.785816
107.448636,5625.565159,6661.853478,-66343.870127
107.451176,1628.453072,-5329.482782,-66650.308326
107.453715,1332.370696,4885.359217,-67722.842023
107.456254,5921.647536,12583.501014,-66190.651027
107.458794,-4589.276840,2960.823768,-68488.937521
107.461333,10658.965565,4441.235652,-64352.021832
107.463873,26055.249158,-13027.624579,-60674.763442
107.466412,-16876.695478,-740.205942,-72932.291410
107.468952,11103.089130,7254.018232,-63585.926334
107.471491,14656.077652,1036.288319,-63279.488135
107.474031,-10066.800811,5625.565159,-70327.566716
107.476570,3108.864956,1924.535449,-65424.555529
107.479109,15396.283594,-8142.265362,-63432.707234
107.481658,15692.365970,-7846.182985,-63892.364533
107.484207,-6513.812290,4589.276840,-69561.471218
107.486756,3256.906145,3256.906145,-65424.555529
107.489305,8734.430116,1628.453072,-63892.364533
107.491854,11843.295072,6809.894666,-64811.679131
107.494403,0.000000,-9770.718434,-67263.184724
107.496952,7550.100608,-444.123565,-66650.308326
107.499501,8586.388927,11991.336260,-64198.802732
107.502050,-2516.700203,19689.478057,-67722.842023
107.504599,2812.782580,-7105.977043,-64198.802732
107.507148,11251.130318,-11251.130318,-64964.898230
107.509697,10807.006753,-11399.171507,-67109.965625
107.512246,6513.812290,-6365.771101,-65884.212828
107.514795,9474.636058,-5181.441594,-64811.679131
107.517344,296.082377,444.123565,-65424.555529
107.519893,11399.171507,2812.782580,-65577.774629
107.522442,-2220.617826,-9918.759623,-68335.718422
107.524991,2812.782580,1184.329507,-64352.021832
107.527540,15692.365970,-1036.288319,-62360.173537
107.530089,3849.070898,-15544.324782,-68029.280222
107.532638,-3552.988522,296.082377,-70021.128517
107.535187,9770.718434,26203.290347,-63279.488135
107.537736,-1184.329507,2368.659014,-66343.870127
107.540285,3849.070898,-8882.471304,-66650.308326
107.542833,1036.288319,14656.077652,-70940.443115
107.545382,-888.247130,17764.942608,-66190.651027
107.547931,25759.166782,4293.194464,-59602.229744
107.550480,-22058.137072,5181.441594,-73851.606007
107.553029,14508.036463,3997.112087,-60368.325242
107.555578,9770.718434,2812.782580,-63892.364533
107.558127,-5477.523971,15840.407159,-72625.853210
107.560676,17468.860231,-13619.789333,-62053.735338
107.563225,10658.965565,15988.448347,-65271.336430
107.565774,148.041188,13175.665768,-66803.527426
107.568323,-4145.153275,-9622.677246,-68795.375720
107.570872,888.247130,10362.883188,-67722.842023
107.573421,1924.535449,14952.160028,-68182.499322
107.575970,6661.853478,8586.388927,-65118.117330
107.578519,3256.906145,-3256.906145,-66343.870127
107.581068,13471.748144,-740.205942,-63739.145434
107.583624,-5921.647536,14804.118840,-68795.375720
107.586180,8142.265362,4441.235652,-65884.212828
107.588736,3701.029710,13619.789333,-65118.117330
107.591292,5033.400406,-24130.713709,-66190.651027
107.593848,7254.018232,-20577.725188,-67263.184724
107.596404,9918.759623,13027.624579,-62973.049936
107.598959,1036.288319,3552.988522,-66650.308326
107.601515,-2812.782580,6365.771101,-67109.965625
107.604071,13323.706956,-5773.606348,-63585.926334
107.606627,10066.800811,-14508.036463,-67416.403824
107.609183,-1332.370696,-14952.160028,-68642.156621
107.611739,13175.665768,1924.535449,-63739.145434
107.614295,8142.265362,11251.130318,-64964.898230
107.616851,-4293.194464,-9178.553681,-67722.842023
107.619407,9770.718434,888.247130,-64964.898230
107.621963,9030.512492,-888.247130,-66650.308326
107.624519,5477.523971,296.082377,-66343.870127
107.627075,5773.606348,1332.370696,-67109.965625
107.629631,3997.112087,-16728.654289,-67109.965625
107.632187,13471.748144,-7698.141797,-62360.173537
107.634743,-296.082377,6513.812290,-68795.375720
107.637298,888.247130,6513.812290,-66650.308326
107.639854,11547.212695,5921.647536,-63126.269035
107.642410,-1776.494261,-12287.418637,-68948.594820
107.644966,17468.860231,-21169.889941,-64352.021832
107.647522,7402.059420,34049.473332,-65577.774629
107.650078,-10362.883188,22206.178260,-68488.937521
107.652634,1332.370696,-9030.512492,-66037.431928
107.655190,13767.830521,-888.247130,-65271.336430
107.657746,17764.942608,3108.864956,-64505.240932
107.660302,-5033.400406,-148.041188,-68335.718422
107.662858,1924.535449,6217.729913,-64198.802732
107.665414,7254.018232,22502.260637,-65271.336430
107.667970,-8142.265362,5773.606348,-71093.662214
107.670526,2516.700203,15396.283594,-67569.622924
107.673082,18061.024985,18949.272115,-63279.488135
107.675637,-148.041188,4885.359217,-64505.240932
107.678193,-4885.359217,-6365.771101,-69561.471218
107.680749,4885.359217,-4441.235652,-65730.993728
107.683305,11547.212695,8290.306550,-62666.611736
107.685867,-4293.194464,15692.365970,-70174.347617
107.688429,444.123565,11547.212695,-68335.718422
107.690990,14804.118840,3552.988522,-63739.145434
107.693552,-3256.906145,9918.759623,-70327.566716
107.696114,-3701.029710,6513.812290,-68029.280222
107.698675,22650.301825,5033.400406,-61594.078039
107.701237,-8882.471304,8142.265362,-70327.566716
107.703799,-1924.535449,-24870.919651,-71400.100414
107.706360,4589.276840,-4145.153275,-68488.937521
107.708922,17468.860231,12731.542202,-62513.392637
107.711484,444.123565,-5773.606348,-66497.089226
107.714045,-7105.977043,-11695.253884,-70940.443115
107.716607,16432.571912,1776.494261,-60674.763442
107.719169,11991.336260,10955.047942,-66343.870127
107.721731,-7402.059420,5329.482782,-70480.785816
107.724292,13323.706956,-7698.141797,-63279.488135
107.726854,5625.565159,-17912.983796,-66650.308326
107.729416,1184.329507,-22058.137072,-65730.993728
107.731977,6513.812290,-7994.224174,-65424.555529
107.734539,11103.089130,-13323.706956,-67263.184724
107.737101,9178.553681,-3997.112087,-66803.527426
107.739662,3256.906145,-4737.318029,-65730.993728
107.742224,2368.659014,-3701.029710,-66190.651027
107.744786,14804.118840,-8586.388927,-66956.746525
107.747347,-3404.947333,-3997.112087,-68795.375720
107.749909,4737.318029,-1924.535449,-64352.021832
107.752471,11399.171507,-1332.370696,-64045.583633
107.755032,-4589.276840,-5181.441594,-69867.909418
107.757594,-3108.864956,-6513.812290,-69101.813920
107.760156,21169.889941,18801.230927,-59755.448844
107.762717,-7698.141797,2664.741391,-68182.499322
107.765279,-3849.070898,-11991.336260,-69561.471218
107.767841,18357.107362,18801.230927,-63126.269035
107.770402,16876.695478,-296.082377,-63739.145434
107.772964,296.082377,-17912.983796,-67722.842023
107.775526,-11843.295072,24278.754898,-70174.347617
107.778088,9474.636058,16432.571912,-61900.516238
107.780649,13027.624579,-2664.741391,-62819.830836
107.783211,1776.494261,23982.672521,-70787.224015
107.785773,2220.617826,-3849.070898,-68182.499322
107.788339,5329.482782,1184.329507,-66497.089226
107.790906,6217.729913,15988.448347,-65424.555529
107.793473,1628.453072,2664.741391,-66803.527426
107.796039,2220.617826,-296.082377,-67876.061123
107.798606,6809.894666,7550.100608,-64658.460031
107.801173,10214.842000,5033.400406,-64045.583633
107.803739,-4293.194464,6513.812290,-70940.443115
107.806306,6809.894666,6365.771101,-65884.212828
107.808873,11991.336260,6957.935855,-64045.583633
107.811439,3256.906145,10955.047942,-66956.746525
107.814006,740.205942,-16728.654289,-64811.679131
107.816573,17912.983796,-20429.683999,-62513.392637
107.819140,8290.306550,2220.617826,-67876.061123
107.821706,148.041188,4589.276840,-66497.089226
107.824273,1924.535449,-3701.029710,-65884.212828
107.826840,7105.977043,-6365.771101,-65118.117330
107.829406,6217.729913,-6365.771101,-66956.746525
107.831973,19985.560434,740.205942,-60981.201641
107.834540,-10510.924376,-13471.748144,-72472.634111
107.837106,-148.041188,-148.041188,-67722.842023
107.839673,16136.489536,-12435.459826,-61747.297139
107.842240,740.205942,3552.988522,-65730.993728
107.844806,5033.400406,2368.659014,-67569.622924
107.847373,6661.853478,-10214.842000,-66803.527426
107.849940,15100.201217,-2664.741391,-64964.898230
107.852507,5181.441594,-18061.024985,-66650.308326
107.855073,1776.494261,-18061.024985,-66956.746525
107.857640,9178.553681,19689.478057,-64505.240932
107.860207,9030.512492,4441.235652,-63585.926334
107.862773,-9918.759623,3404.947333,-70174.347617
107.865340,4885.359217,-4737.318029,-65730.993728
107.867907,28275.866984,-17912.983796,-58836.134246
107.870473,-1332.370696,16580.613101,-69101.813920
107.873040,-9918.759623,22798.343014,-68029.280222
107.875607,11547.212695,-2664.741391,-62360.173537
107.878174,14952.160028,2664.741391,-65271.336430
107.880740,888.247130,3849.070898,-69101.813920
107.883307,-2220.617826,10066.800811,-68182.499322
107.885874,7254.018232,16728.654289,-61747.297139
107.888440,14804.118840,888.247130,-62206.954438
107.891010,-3701.029710,-3404.947333,-67569.622924
107.893581,2960.823768,-8438.347739,-68335.718422
107.896152,20577.725188,2220.617826,-65884.212828
107.898723,1924.535449,9770.718434,-67722.842023
107.901294,3108.864956,30792.567187,-64505.240932
107.903864,-6069.688724,3997.112087,-69255.033019
107.906435,2960.823768,-888.247130,-66343.870127
107.909006,15840.407159,13471.748144,-63739.145434
107.911577,-5773.606348,13471.748144,-68948.594820
107.914148,13471.748144,-3849.070898,-61747.297139
107.916719,21169.889941,-7550.100608,-60827.982541
107.919289,-5477.523971,-2812.782580,-71093.662214
107.921860,-1184.329507,17912.983796,-66803.527426
107.924431,14211.954086,-3256.906145,-62053.735338
107.927002,15988.448347,-18653.189738,-64811.679131
107.929573,-5329.482782,2368.659014,-70021.128517
107.932143,8142.265362,8438.347739,-63892.364533
107.934714,7994.224174,-5773.606348,-64658.460031
107.937285,-2220.617826,-5181.441594,-67569.622924
107.939856,18209.066173,2516.700203,-62666.611736
107.942427,-3404.947333,-20725.766376,-70021.128517
107.944998,-10658.965565,-9622.677246,-73238.729609
107.947568,18209.066173,-11695.253884,-62360.173537
107.950139,9622.677246,11843.295072,-63432.707234
107.952710,-11399.171507,6365.771101,-71706.538613
107.955281,10955.047942,4293.194464,-65577.774629
107.957852,13767.830521,-1480.411884,-65884.212828
107.960423,5181.441594,-15100.201217,-67876.061123
107.962993,-2220.617826,-19541.436869,-68488.937521
107.965564,10807.006753,6513.812290,-63892.364533
107.968135,12139.377449,6513.812290,-64505.240932
107.970706,-8438.347739,-1332.370696,-69867.909418
107.973277,-444.123565,-10362.883188,-68182.499322
107.975848,16876.695478,5773.606348,-63279.488135
107.978418,6365.771101,-15692.365970,-64352.021832
107.980989,7402.059420,21169.889941,-67722.842023
107.983560,-8142.265362,10955.047942,-67569.622924
107.986131,12139.377449,-7254.018232,-63126.269035
107.988702,11695.253884,1480.411884,-67109.965625
107.991273,6957.935855,-3108.864956,-66343.870127
107.993846,1036.288319,9178.553681,-66650.308326
107.996419,-12731.542202,18653.189738,-69867.909418
107.998992,14952.160028,12879.583391,-60827.982541
108.001565,3552.988522,-444.123565,-66803.527426
108.004138,-2812.782580,-444.123565,-71706.538613
108.006711,22798.343014,24722.878463,-62053.735338
108.009285,-3997.112087,-5329.482782,-68795.375720
108.011858,-148.041188,11103.089130,-66190.651027
108.014431,9326.594869,29756.278868,-63126.269035
108.017004,0.000000,8734.430116,-68182.499322
108.019577,-1628.453072,6661.853478,-68335.718422
108.022150,23686.590144,-7550.100608,-58989.353346
108.024723,17912.983796,-4293.194464,-62360.173537
108.027296,-18061.024985,9918.759623,-74311.263306
108.029870,19393.395680,18801.230927,-61440.858940
108.032443,-3997.112087,34345.555709,-67263.184724
108.035016,9030.512492,-29016.072926,-65577.774629
108.037589,-3701.029710,-15544.324782,-71553.319513
108.040162,17024.736666,17616.901420,-61594.078039
108.042735,3701.029710,-2664.741391,-65884.212828
108.045308,-6661.853478,1628.453072,-69255.033019
108.047882,18949.272115,2960.823768,-61747.297139
108.050455,296.082377,-2664.741391,-66343.870127
108.053028,-5477.523971,4145.153275,-70174.347617
108.055601,14508.036463,-4885.359217,-64045.583633
108.058174,6661.853478,-26351.331535,-65271.336430
108.060747,5773.606348,-4885.359217,-67263.184724
108.063320,9474.636058,-1036.288319,-64505.240932
108.065893,5477.523971,-38194.626607,-66037.431928
108.068467,17024.736666,-19541.436869,-65118.117330
108.071040,1628.453072,-7846.182985,-69101.813920
108.073613,5329.482782,-12435.459826,-65884.212828
108.076186,9326.594869,1036.288319,-62666.611736
108.078759,8142.265362,-18357.107362,-65730.993728
108.081332,9030.512492,-6809.894666,-65577.774629
108.083905,6809.894666,-2072.576638,-66037.431928
108.086479,8438.347739,-8734.430116,-66190.651027
108.089052,11103.089130,32865.143825,-64964.898230
108.091625,-5033.400406,7846.182985,-65884.212828
108.094198,-1036.288319,-18653.189738,-66803.527426
108.096773,16580.613101,8438.347739,-65271.336430
108.099348,16284.530724,-888.247130,-63892.364533
108.101923,-5477.523971,7846.182985,-72625.853210
108.104499,-25315.043216,31532.773129,-74464.482406
108.107074,21910.095883,16728.654289,-57150.724151
108.109649,7698.141797,-2960.823768,-65424.555529
108.112224,-2368.659014,-7402.059420,-71859.757712
108.114799,13027.624579,-11103.089130,-65118.117330
108.117375,7698.141797,14063.912898,-65118.117330
108.119950,12435.459826,15692.365970,-62819.830836
108.122525,-9622.677246,14211.954086,-71246.881314
108.125100,-1480.411884,5921.647536,-66956.746525
108.127675,19985.560434,-10066.800811,-61440.858940
108.130250,12287.418637,-20429.683999,-65271.336430
108.132826,14211.954086,-5773.606348,-61900.516238
108.135401,-7994.224174,7698.141797,-70787.224015
108.137976,7846.182985,20281.642811,-66190.651027
108.140551,14211.954086,16136.489536,-60981.201641
108.143126,-2812.782580,-28423.908173,-69101.813920
108.145702,3701.029710,-12731.542202,-69408.252119
108.148277,17024.736666,10658.965565,-61747.297139
108.150852,-888.247130,-3997.112087,-67109.965625
108.153427,-1628.453072,-11547.212695,-67569.622924
108.156002,17912.983796,-3108.864956,-62360.173537
108.158578,18061.024985,-3108.864956,-63279.488135
108.161153,-8142.265362,1184.329507,-69714.690318
108.163728,4737.318029,-4737.318029,-66803.527426
108.166303,8290.306550,11251.130318,-66037.431928
108.168878,-2220.617826,10955.047942,-66650.308326
108.171453,6809.894666,-1184.329507,-65118.117330
108.174029,8290.306550,-3552.988522,-67569.622924
108.176604,5773.606348,-10955.047942,-67722.842023
108.179179,3552.988522,-3108.864956,-65730.993728
108.181754,6661.853478,7254.018232,-64505.240932
108.184329,14359.995275,3404.947333,-63432.707234
108.186905,-1924.535449,-3108.864956,-68335.718422
108.189480,3701.029710,3256.906145,-67263.184724
108.192055,1332.370696,1924.535449,-67109.965625
108.194630,5773.606348,-4737.318029,-67109.965625
108.197205,10510.924376,15692.365970,-64045.583633
108.199782,-2664.741391,-2220.617826,-65118.117330
108.202359,7254.018232,-4885.359217,-67263.184724
108.204936,11103.089130,4293.194464,-67109.965625
108.207513,5773.606348,-4145.153275,-66037.431928
108.210090,8734.430116,-3552.988522,-63585.926334
108.212666,-9030.512492,2812.782580,-69408.252119
108.215243,3997.112087,17616.901420,-64811.679131
108.217820,11547.212695,8290.306550,-62819.830836
108.220397,15692.365970,-16136.489536,-64352.021832
108.222974,3997.112087,7846.182985,-70480.785816
108.225551,0.000000,10066.800811,-66190.651027
108.228128,5477.523971,-5773.606348,-64352.021832
108.230704,3256.906145,9918.759623,-67263.184724
108.233281,5329.482782,3108.864956,-65884.212828
108.235858,3256.906145,1480.411884,-67109.965625
108.238435,148.041188,2368.659014,-66190.651027
108.241012,4293.194464,3256.906145,-65577.774629
108.243589,10214.842000,2960.823768,-64505.240932
108.246166,-1332.370696,10807.006753,-68642.156621
108.248742,-3552.988522,444.123565,-69408.252119
108.251319,20873.807564,-13175.665768,-61440.858940
108.253896,5921.647536,2368.659014,-65884.212828
108.256473,-6809.894666,1184.329507,-69255.033019
108.259050,4737.318029,-3701.029710,-66497.089226
108.261627,11843.295072,-3701.029710,-63126.269035
108.264204,10214.842000,-6957.935855,-68335.718422
108.266780,10807.006753,-2664.741391,-63585.926334
108.269357,-2368.659014,-14508.036463,-68029.280222
108.271934,9622.677246,-15692.365970,-66497.089226
108.274511,7698.141797,3552.988522,-64505.240932
108.277088,-740.205942,3997.112087,-67722.842023
108.279665,9326.594869,-36270.091158,-65424.555529
108.282241,8734.430116,-1184.329507,-68029.280222
108.284818,4441.235652,12879.583391,-67722.842023
108.287395,2664.741391,-8290.306550,-68948.594820
108.289972,-3701.029710,-7105.977043,-65884.212828
108.292549,11991.336260,-8142.265362,-64352.021832
108.295126,9622.677246,-7402.059420,-65271.336430
108.297703,3701.029710,-20725.766376,-65730.993728
108.300279,10658.965565,-1776.494261,-66956.746525
108.302822,2368.659014,37306.379477,-65730.993728
108.305365,2368.659014,10658.965565,-62819.830836
108.307908,-4145.153275,-19097.313304,-69101.813920
108.310451,12583.501014,4441.235652,-67416.403824
108.312994,16284.530724,12287.418637,-64505.240932
108.315537,-8142.265362,8142.265362,-70480.785816
108.318080,-2812.782580,19393.395680,-66037.431928
108.320623,13175.665768,20429.683999,-63739.145434
108.323166,-7994.224174,-4885.359217,-70634.004916
108.325709,888.247130,25018.960840,-68795.375720
108.328252,18209.066173,4885.359217,-63739.145434
108.330795,5773.606348,-10807.006753,-66650.308326
108.333337,-5625.565159,2960.823768,-67876.061123
108.335880,3997.112087,15248.242405,-66190.651027
108.338423,1184.329507,11103.089130,-67722.842023
108.340966,8290.306550,19541.436869,-66803.527426
108.343509,-1184.329507,-888.247130,-68182.499322
108.346052,592.164754,-3404.947333,-66803.527426
108.348595,13915.871710,888.247130,-64505.240932
108.351138,148.041188,10658.965565,-67416.403824
108.353681,-1628.453072,-7698.141797,-66956.746525
108.356224,23834.631332,-22650.301825,-62973.049936
108.358767,2368.659014,12287.418637,-69255.033019
108.361310,-4737.318029,6957.935855,-68029.280222
108.363852,6809.894666,1332.370696,-64658.460031
108.366395,9178.553681,-6069.688724,-64964.898230
108.368938,10214.842000,-12139.377449,-67109.965625
108.371481,11399.171507,-888.247130,-64658.460031
108.374024,1036.288319,17172.777854,-66956.746525
108.376567,-2960.823768,10214.842000,-69561.471218
108.379110,2516.700203,5033.400406,-65884.212828
108.381653,9770.718434,-3849.070898,-62666.611736
108.384196,4145.153275,-7550.100608,-67569.622924
108.386739,14952.160028,-8734.430116,-65730.993728
108.389282,12731.542202,2664.741391,-64045.583633
108.391825,-3404.947333,11695.253884,-66650.308326
108.394368,-592.164754,-1036.288319,-66343.870127
108.396910,7105.977043,-15988.448347,-66037.431928
108.399453,6365.771101,-2812.782580,-66650.308326
108.401996,8438.347739,-3552.988522,-63892.364533
108.404547,6069.688724,740.205942,-68182.499322
108.407097,-1924.535449,21317.931130,-67876.061123
108.409648,10362.883188,-2368.659014,-60674.763442
108.412199,296.082377,-3701.029710,-69255.033019
108.414749,8882.471304,2220.617826,-68029.280222
108.417300,17764.942608,-1628.453072,-61747.297139
108.419850,-8882.471304,2960.823768,-70940.443115
108.422401,-5921.647536,18357.107362,-67416.403824
108.424951,18505.148550,28127.825796,-59908.667944
108.427502,-2072.576638,14508.036463,-69867.909418
108.430053,296.082377,12879.583391,-69714.690318
108.432603,14063.912898,10510.924376,-66343.870127
108.435154,-2072.576638,7846.182985,-66956.746525
108.437704,3552.988522,27979.784608,-62513.392637
108.440255,592.164754,15840.407159,-69714.690318
108.442805,-3552.988522,14804.118840,-71706.538613
108.445356,18209.066173,4145.153275,-58836.134246
108.447906,0.000000,-8882.471304,-66956.746525
108.450457,-5477.523971,-6661.853478,-70327.566716
108.453008,4589.276840,8882.471304,-66037.431928
108.455558,5921.647536,11991.336260,-64198.802732
108.458109,9326.594869,-16284.530724,-66497.089226
108.460659,-2072.576638,-20281.642811,-72779.072310
108.463210,9178.553681,7994.224174,-63432.707234
108.465760,4885.359217,-1924.535449,-64505.240932
108.468311,-3849.070898,-7402.059420,-69867.909418
108.470862,11103.089130,148.041188,-64505.240932
108.473412,11103.089130,-13767.830521,-65577.774629
108.475963,-2812.782580,-9326.594869,-69714.690318
108.478513,7254.018232,-5477.523971,-65271.336430
108.481064,10214.842000,10807.006753,-65118.117330
108.483614,-7254.018232,-20281.642811,-68029.280222
108.486165,8882.471304,-17024.736666,-66650.308326
108.488716,5625.565159,9178.553681,-67876.061123
108.491266,14508.036463,8290.306550,-64505.240932
108.493817,4293.194464,-5625.565159,-66343.870127
108.496367,-6365.771101,-10955.047942,-68795.375720
108.498918,11843.295072,7105.977043,-63126.269035
108.501468,12731.542202,-1332.370696,-64352.021832
108.504019,-3849.070898,2368.659014,-70634.004916
108.506576,-3256.906145,1184.329507,-68948.594820
108.509133,13915.871710,24574.837274,-62973.049936
108.511690,-2516.700203,16580.613101,-66343.870127
108.514247,-3108.864956,-13767.830521,-66956.746525
108.516804,9770.718434,10658.965565,-68029.280222
108.519361,9622.677246,23242.466579,-67263.184724
108.521918,-10066.800811,13323.706956,-69561.471218
108.524475,2812.782580,15248.242405,-64811.679131
108.527032,2220.617826,7254.018232,-66037.431928
108.529589,7550.100608,-4589.276840,-63892.364533
108.532146,8586.388927,-4441.235652,-69255.033019
108.534704,-296.082377,6661.853478,-68335.718422
108.537261,6365.771101,7698.141797,-67109.965625
108.539818,4589.276840,5477.523971,-65884.212828
108.542375,-148.041188,8734.430116,-64505.240932
108.544932,3701.029710,11991.336260,-66803.527426
108.547489,7698.141797,10510.924376,-69255.033019
108.550046,3108.864956,1036.288319,-65730.993728
108.552603,-1924.535449,2368.659014,-66497.089226
108.555160,8142.265362,8438.347739,-65424.555529
108.557717,4145.153275,13619.789333,-64964.898230
108.560274,1924.535449,-17172.777854,-67109.965625
108.562831,8142.265362,-16580.613101,-67722.842023
108.565388,16284.530724,11695.253884,-63892.364533
108.567945,-5181.441594,3404.947333,-68335.718422
108.570502,3108.864956,-9474.636058,-64198.802732
108.573059,11251.130318,4293.194464,-65884.212828
108.575616,-592.164754,-15692.365970,-69561.471218
108.578173,17912.983796,-10807.006753,-61747.297139
108.580730,-148.041188,-2516.700203,-69714.690318
108.583288,2072.576638,-25907.207970,-66037.431928
108.585845,9326.594869,-8586.388927,-64964.898230
108.588406,9770.718434,-3108.864956,-64505.240932
108.590968,5625.565159,10807.006753,-67569.622924
108.593530,1036.288319,-296.082377,-70174.347617
108.596091,10362.883188,-8438.347739,-65118.117330
108.598653,740.205942,-10658.965565,-64505.240932
108.601215,1184.329507,-19245.354492,-65730.993728
108.603776,14804.118840,9474.636058,-65577.774629
108.606338,3256.906145,-3256.906145,-66037.431928
108.608900,5477.523971,-18357.107362,-65730.993728
108.611461,14063.912898,23686.590144,-64811.679131
108.614023,-10214.842000,17024.736666,-67263.184724
108.616585,2368.659014,-5181.441594,-65730.993728
108.619147,18801.230927,5033.400406,-64198.802732
108.621708,0.000000,2368.659014,-71553.319513
108.624270,3849.070898,5625.565159,-64045.583633
108.626832,2960.823768,13471.748144,-62666.611736
108.629393,-6809.894666,22798.343014,-71706.538613
108.631955,592.164754,17468.860231,-68029.280222
108.634517,9030.512492,20133.601622,-64658.460031
108.637078,3108.864956,12731.542202,-68335.718422
108.639640,4293.194464,16728.654289,-67416.403824
108.642202,-148.041188,2960.823768,-64505.240932
108.644763,-5773.606348,17172.777854,-69714.690318
108.647325,11251.130318,14508.036463,-64505.240932
108.649887,10066.800811,-592.164754,-65730.993728
108.652448,-2960.823768,11695.253884,-68029.280222
108.655010,1036.288319,10510.924376,-66803.527426
108.657572,9770.718434,13471.748144,-64658.460031
108.660134,-2072.576638,25315.043216,-68795.375720
108.662695,5181.441594,-28275.866984,-66343.870127
108.665257,740.205942,-14804.118840,-71246.881314
108.667819,8438.347739,9030.512492,-64198.802732
108.670380,592.164754,-1036.288319,-66497.089226
108.672942,5921.647536,-5329.482782,-64964.898230
108.675504,10510.924376,-6217.729913,-66190.651027
108.678065,4145.153275,-11991.336260,-67876.061123
108.680627,7994.224174,-12879.583391,-65730.993728
108.683189,7550.100608,-12139.377449,-65884.212828
108.685750,6809.894666,-16876.695478,-64045.583633
108.688312,10510.924376,-8438.347739,-63585.926334
108.690878,10807.006753,10214.842000,-64658.460031
108.693443,296.082377,-3404.947333,-70327.566716
108.696009,5625.565159,-9474.636058,-67109.965625
108.698575,9474.636058,-296.082377,-62206.954438
108.701141,11251.130318,-2516.700203,-62666.611736
108.703706,-9030.512492,-7254.018232,-72166.195912
108.706272,11843.295072,-8290.306550,-65577.774629
108.708838,7698.141797,6513.812290,-64811.679131
108.711403,7550.100608,-7994.224174,-66037.431928
108.713969,-3256.906145,14359.995275,-68182.499322
108.716535,2368.659014,6809.894666,-65118.117330
108.719100,13471.748144,5921.647536,-64505.240932
108.721666,5625.565159,16432.571912,-70174.347617
108.724232,-3849.070898,14063.912898,-69867.909418
108.726798,888.247130,-592.164754,-62360.173537
108.729363,6513.812290,7254.018232,-65577.774629
108.731929,3849.070898,1776.494261,-66497.089226
108.734495,2220.617826,-7994.224174,-67109.965625
108.737060,2220.617826,30644.525999,-70327.566716
108.739626,9030.512492,7846.182985,-68029.280222
108.742192,3997.112087,19245.354492,-63739.145434
108.744757,-296.082377,13619.789333,-65424.555529
108.747323,15840.407159,-20725.766376,-64352.021832
108.749889,4145.153275,-11103.089130,-68642.156621
108.752455,6957.935855,1480.411884,-65271.336430
108.755020,1628.453072,9770.718434,-66803.527426
108.757586,1184.329507,11547.212695,-68182.499322
108.760152,11695.253884,592.164754,-63126.269035
108.762717,592.164754,-20429.683999,-68795.375720
108.765283,3404.947333,-14804.118840,-69408.252119
108.767849,14952.160028,7550.100608,-63892.364533
108.770414,592.164754,6217.729913,-67416.403824
108.772980,-7105.977043,-7550.100608,-69714.690318
108.775546,16136.489536,-5181.441594,-64352.021832
108.778112,2960.823768,-2516.700203,-68335.718422
108.780677,15248.242405,3997.112087,-63432.707234
108.783243,-2812.782580,5773.606348,-69714.690318
108.785809,-4441.235652,10066.800811,-68795.375720
108.788374,15100.201217,7254.018232,-61440.858940
108.790940,3256.906145,-6217.729913,-64505.240932
108.793509,-1776.494261,9178.553681,-72012.976812
108.796078,5625.565159,-3256.906145,-68795.375720
108.798648,-2072.576638,-21021.848753,-68335.718422
108.801217,3997.112087,-9474.636058,-64505.240932
108.803786,17172.777854,-3108.864956,-61287.639840
108.806355,296.082377,3256.906145,-70174.347617
108.808924,-6217.729913,3997.112087,-70021.128517
108.811493,5921.647536,5181.441594,-66343.870127
108.814062,11695.253884,19245.354492,-64045.583633
108.816632,-7994.224174,-1776.494261,-67109.965625
108.819201,-2220.617826,-10510.924376,-68795.375720
108.821770,22354.219448,15544.324782,-64352.021832
108.824339,11547.212695,3701.029710,-61594.078039
108.826908,1036.288319,-7550.100608,-66497.089226
108.829477,-14508.036463,6217.729913,-71859.757712
108.832047,15988.448347,20429.683999,-60827.982541
108.834616,-888.247130,33309.267390,-69101.813920
108.837185,2812.782580,-1480.411884,-69255.033019
108.839754,14359.995275,444.123565,-63279.488135
108.842323,888.247130,21169.889941,-69408.252119
108.844892,-11103.089130,35974.008781,-68642.156621
108.847462,4589.276840,2664.741391,-65424.555529
108.850031,13471.748144,-3404.947333,-64045.583633
108.852600,9770.718434,3552.988522,-64964.898230
108.855169,-4589.276840,-3108.864956,-68948.594820
108.857738,1628.453072,9326.594869,-66650.308326
108.860307,14359.995275,21169.889941,-62666.611736
108.862876,3404.947333,-21021.848753,-67876.061123
108.865446,1036.288319,-26795.455100,-70787.224015
108.868015,13619.789333,11991.336260,-61900.516238
108.870584,4441.235652,-2516.700203,-65884.212828
108.873153,148.041188,-16284.530724,-68642.156621
108.875722,2072.576638,-15396.283594,-67569.622924
108.878291,2368.659014,-2960.823768,-68182.499322
108.880861,15840.407159,9918.759623,-60981.201641
108.883430,2368.659014,11251.130318,-67876.061123
108.885999,-4441.235652,740.205942,-67569.622924
108.888568,11843.295072,-14211.954086,-63739.145434
108.891137,8586.388927,-20281.642811,-64505.240932
108.893706,15988.448347,-13175.665768,-66956.746525
108.896276,8290.306550,-4885.359217,-68488.937521
108.898847,-3997.112087,-2220.617826,-66956.746525
108.901418,12435.459826,9326.594869,-62206.954438
108.903989,2368.659014,-13619.789333,-64658.460031
108.906560,-5773.606348,-8734.430116,-70327.566716
108.909131,7698.141797,-20577.725188,-64352.021832
108.911702,19689.478057,22354.219448,-64658.460031
108.914272,-11251.130318,10807.006753,-69561.471218
108.916843,5477.523971,-7994.224174,-61747.297139
108.919414,2220.617826,2516.700203,-68948.594820
108.921985,16876.695478,17912.983796,-66497.089226
108.924556,6957.935855,-1480.411884,-64045.583633
108.927127,2368.659014,-7105.977043,-65118.117330
108.929698,-13027.624579,15248.242405,-70327.566716
108.932269,5329.482782,21021.848753,-66497.089226
108.934840,4589.276840,21762.054695,-67876.061123
108.937410,2812.782580,17024.736666,-68488.937521
108.939981,17468.860231,22650.301825,-62666.611736
108.942552,-13027.624579,15840.407159,-71400.100414
108.945123,5773.606348,17616.901420,-63126.269035
108.947694,14211.954086,10214.842000,-63892.364533
108.950265,-3997.112087,9770.718434,-68029.280222
108.952836,6217.729913,-592.164754,-64964.898230
108.955407,8438.347739,7846.182985,-64811.679131
108.957978,592.164754,4737.318029,-65424.555529
108.960548,4885.359217,3404.947333,-66190.651027
108.963119,11695.253884,-13767.830521,-65271.336430
108.965690,15396.283594,-15840.407159,-65118.117330
108.968261,-13619.789333,6069.688724,-71093.662214
108.970832,14952.160028,-10510.924376,-61747.297139
108.973403,9030.512492,-9770.718434,-64658.460031
108.975974,-1036.288319,-3256.906145,-70327.566716
108.978545,7994.224174,5033.400406,-66343.870127
108.981116,2812.782580,-2664.741391,-66650.308326
108.983686,6217.729913,13175.665768,-66190.651027
108.986257,6809.894666,-5921.647536,-63432.707234
108.988828,4293.194464,-20873.807564,-65730.993728
108.991399,4737.318029,9622.677246,-68488.937521
108.993970,16580.613101,-17024.736666,-66190.651027
108.996541,5477.523971,9474.636058,-65118.117330
108.999113,444.123565,5329.482782,-66343.870127
109.001686,-2516.700203,-9030.512492,-68335.718422
109.004259,13915.871710,5033.400406,-63892.364533
109.006831,9918.759623,-7846.182985,-63739.145434
109.009404,4441.235652,-17468.860231,-66343.870127
109.011976,740.205942,13619.789333,-68488.937521
109.014549,-2072.576638,6661.853478,-64505.240932
109.017121,5625.565159,-4441.235652,-64505.240932
109.019694,14952.160028,7698.141797,-67416.403824
109.022266,5625.565159,10510.924376,-69101.813920
109.024839,-1184.329507,5773.606348,-62666.611736
109.027411,4293.194464,9770.718434,-64352.021832
109.029984,7105.977043,8290.306550,-65424.555529
109.032556,-592.164754,10362.883188,-69867.909418
109.035129,2368.659014,30940.608376,-66803.527426
109.037701,3256.906145,26055.249158,-67722.842023
109.040274,-2516.700203,24426.796086,-70940.443115
109.042847,-2516.700203,-5921.647536,-63126.269035
109.045419,16728.654289,-6809.894666,-60981.201641
109.047992,-7254.018232,16728.654289,-73851.606007
109.050564,7402.059420,5181.441594,-66343.870127
109.053137,6957.935855,23834.631332,-63126.269035
109.055709,-5625.565159,12879.583391,-68488.937521
109.058282,3108.864956,11399.171507,-66343.870127
109.060854,17468.860231,-23686.590144,-63585.926334
109.063427,1332.370696,-14359.995275,-70021.128517
109.065999,-1480.411884,20429.683999,-67569.622924
109.068572,6661.853478,3997.112087,-66190.651027
109.071144,4737.318029,-8586.388927,-63892.364533
109.073717,4293.194464,-5329.482782,-67109.965625
109.076289,9918.759623,-5773.606348,-66497.089226
109.078862,3849.070898,-14063.912898,-67722.842023
109.081434,16284.530724,-13619.789333,-63126.269035
109.084007,444.123565,-5033.400406,-68029.280222
109.086580,1480.411884,1776.494261,-66037.431928
109.089152,4885.359217,-10362.883188,-65424.555529
109.091725,13323.706956,-27239.578666,-68488.937521
109.094297,2516.700203,-26203.290347,-66037.431928
109.096870,20577.725188,2664.741391,-60061.887043
109.099442,-4293.194464,740.205942,-68795.375720
109.102016,1924.535449,-4589.276840,-67569.622924
109.104591,17468.860231,-2812.782580,-61287.639840
109.107165,3701.029710,-7550.100608,-66497.089226
109.109739,2368.659014,17468.860231,-68335.718422
109.112313,-6365.771101,15100.201217,-65730.993728
109.114887,11695.253884,-9178.553681,-62360.173537
109.117461,9326.594869,14952.160028,-68182.499322
109.120036,-7698.141797,8882.471304,-73238.729609
109.122610,8142.265362,3849.070898,-61134.420740
109.125184,6513.812290,9178.553681,-64198.802732
109.127758,3404.947333,2960.823768,-66497.089226
109.130332,-3997.112087,23242.466579,-68488.937521
109.132906,8290.306550,12435.459826,-67416.403824
109.135481,13323.706956,-6365.771101,-64811.679131
109.138055,5329.482782,1776.494261,-67416.403824
109.140629,-2220.617826,4145.153275,-64505.240932
109.143203,11843.295072,11399.171507,-65118.117330
109.145777,2664.741391,-148.041188,-69561.471218
109.148351,-13471.748144,28571.949361,-71859.757712
109.150926,22650.301825,8734.430116,-59142.572446
109.153500,-6217.729913,888.247130,-69714.690318
109.156074,6809.894666,-19689.478057,-65884.212828
109.158648,12879.583391,-8882.471304,-64811.679131
109.161222,-3701.029710,-3552.988522,-72319.415011
109.163797,11399.171507,11103.089130,-63585.926334
109.166371,3701.029710,-13619.789333,-66497.089226
109.168945,-1184.329507,-5773.606348,-66497.089226
109.171519,12287.418637,8734.430116,-68182.499322
109.174093,21762.054695,-11843.295072,-62360.173537
109.176667,-9770.718434,-6957.935855,-72166.195912
109.179242,18949.272115,-21317.931130,-61287.639840
109.181816,2072.576638,-4885.359217,-66803.527426
109.184390,740.205942,-18209.066173,-66190.651027
109.186964,13767.830521,-17912.983796,-65730.993728
109.189538,13767.830521,6365.771101,-66190.651027
109.192112,-4885.359217,-8586.388927,-68335.718422
109.194687,4441.235652,-2220.617826,-65884.212828
109.197261,20725.766376,-1332.370696,-62819.830836
109.199835,5921.647536,148.041188,-65118.117330
109.202409,-4737.318029,-24574.837274,-68795.375720
109.204951,16728.654289,23834.631332,-65577.774629
109.207493,-4589.276840,14359.995275,-67263.184724
109.210035,-1184.329507,-12583.501014,-64352.021832
109.212577,8290.306550,10066.800811,-65884.212828
109.215120,9178.553681,16136.489536,-68488.937521
109.217662,-296.082377,5033.400406,-70021.128517
109.220204,-592.164754,12139.377449,-63892.364533
109.222746,-5033.400406,22798.343014,-68488.937521
109.225288,4885.359217,-740.205942,-66956.746525
109.227830,10066.800811,17764.942608,-64964.898230
109.230372,-5033.400406,7846.182985,-71400.100414
109.232914,3997.112087,14211.954086,-70174.347617
109.235456,4737.318029,12731.542202,-63279.488135
109.237998,7402.059420,4589.276840,-63432.707234
109.240540,-1776.494261,-12879.583391,-68642.156621
109.243083,21317.931130,3849.070898,-62360.173537
109.245625,-17024.736666,30348.443622,-73238.729609
109.248167,16728.654289,13027.624579,-60061.887043
109.250709,1628.453072,7550.100608,-66190.651027
109.253251,3256.906145,-31384.731941,-68948.594820
109.255793,4885.359217,-7994.224174,-68182.499322
109.258335,7550.100608,10214.842000,-64964.898230
109.260877,3404.947333,-7105.977043,-65730.993728
109.263419,1036.288319,-11399.171507,-66037.431928
109.265961,10362.883188,148.041188,-65271.336430
109.268504,-888.247130,-296.082377,-69255.033019
109.271046,15396.283594,-7105.977043,-63432.707234
109.273588,-1332.370696,19097.313304,-69408.252119
109.276130,10362.883188,-21614.013506,-63892.364533
109.278672,148.041188,-23390.507767,-65118.117330
109.281214,3849.070898,10510.924376,-67263.184724
109.283756,17172.777854,-22650.301825,-65118.117330
109.286298,888.247130,-4737.318029,-67876.061123
109.288840,9770.718434,-296.082377,-64045.583633
109.291382,-888.247130,-592.164754,-67722.842023
109.293924,8438.347739,2220.617826,-67109.965625
109.296467,2220.617826,5329.482782,-67416.403824
109.299009,2220.617826,-18653.189738,-66497.089226
109.301551,10807.006753,14656.077652,-65424.555529
109.304093,-444.123565,5181.441594,-62666.611736
109.306642,6809.894666,-2516.700203,-65730.993728
109.309191,3404.947333,9474.636058,-70940.443115
109.311740,5033.400406,18505.148550,-66956.746525
109.314289,444.123565,22502.260637,-65577.774629
109.316838,-6069.688724,3552.988522,-69408.252119
109.319388,10807.006753,6809.894666,-61747.297139
109.321937,20281.642811,-18357.107362,-61287.639840
109.324486,444.123565,-8586.388927,-72625.853210
109.327035,-888.247130,43820.191766,-71093.662214
109.329584,13027.624579,20429.683999,-61747.297139
109.332133,6809.894666,12139.377449,-60827.982541
109.334682,8438.347739,-8142.265362,-64505.240932
109.337231,6365.771101,-8882.471304,-68335.718422
109.339780,-1628.453072,14952.160028,-67876.061123
109.342330,8438.347739,13767.830521,-64045.583633
109.344879,3108.864956,9178.553681,-66343.870127
109.347428,148.041188,-32421.020260,-67416.403824
109.349977,3108.864956,-5033.400406,-69408.252119
109.352526,9474.636058,13323.706956,-65424.555529
109.355075,7698.141797,5477.523971,-64505.240932
109.357624,-10807.006753,-14063.912898,-71706.538613
109.360173,3701.029710,6069.688724,-66037.431928
109.362723,7994.224174,-10362.883188,-66803.527426
109.365272,13767.830521,-23390.507767,-65577.774629
109.367821,10214.842000,-17468.860231,-65271.336430
109.370370,740.205942,-3997.112087,-67416.403824
109.372919,3997.112087,8290.306550,-66343.870127
109.375468,8586.388927,-14656.077652,-62666.611736
109.378017,13915.871710,-11695.253884,-66650.308326
109.380566,10362.883188,2960.823768,-66190.651027
109.383115,-888.247130,-17320.819043,-66803.527426
109.385665,592.164754,-1332.370696,-67722.842023
109.388214,16284.530724,6513.812290,-63585.926334
109.390763,888.247130,-13471.748144,-67416.403824
109.393312,13767.830521,-4737.318029,-65577.774629
109.395861,2664.741391,9474.636058,-67109.965625
109.398410,-7402.059420,11843.295072,-65271.336430
109.400959,10807.006753,8142.265362,-64045.583633
109.403508,5625.565159,17764.942608,-68182.499322
109.406058,2220.617826,5625.565159,-69714.690318
109.408613,2516.700203,24130.713709,-65271.336430
109.411168,-6809.894666,7698.141797,-69408.252119
109.413723,4441.235652,296.082377,-67263.184724
109.416278,13767.830521,888.247130,-64658.460031
109.418833,7254.018232,3849.070898,-65884.212828
109.421389,-1184.329507,46336.891969,-72932.291410
109.423944,-888.247130,17172.777854,-67569.622924
109.426499,-2812.782580,20429.683999,-67722.842023
109.429054,9622.677246,9474.636058,-61440.858940
109.431609,15248.242405,-19689.478057,-64198.802732
109.434164,-16136.489536,23686.590144,-74770.920605
109.436720,17468.860231,15100.201217,-59602.229744
109.439275,6957.935855,27535.661042,-64045.583633
109.441830,10955.047942,-9918.759623,-66190.651027
109.444385,-148.041188,-11547.212695,-70480.785816
109.446940,-3108.864956,11843.295072,-67722.842023
109.449495,16432.571912,-5625.565159,-62973.049936
109.452051,1332.370696,-11843.295072,-65577.774629
109.454606,0.000000,-13619.789333,-68335.718422
109.457161,1332.370696,10510.924376,-69561.471218
109.459716,22798.343014,-25907.207970,-60215.106143
109.462271,740.205942,-19985.560434,-70327.566716
109.464826,-148.041188,7846.182985,-67569.622924
109.467382,9474.636058,-11991.336260,-63892.364533
109.469937,7254.018232,1480.411884,-67109.965625
109.472492,3849.070898,9030.512492,-68488.937521
109.475047,1332.370696,-8882.471304,-67722.842023
109.477602,3552.988522,-13027.624579,-65730.993728
109.480157,17320.819043,-3108.864956,-63279.488135
109.482713,-3552.988522,7994.224174,-71093.662214
109.485268,-7698.141797,6957.935855,-70634.004916
109.487823,21614.013506,22354.219448,-60061.887043
109.490378,2812.782580,7846.182985,-62053.735338
109.492933,-1036.288319,-24278.754898,-66190.651027
109.495488,5773.606348,7550.100608,-68488.937521
109.498044,8142.265362,29312.155303,-68335.718422
109.500599,5329.482782,2812.782580,-63279.488135
109.503154,4145.153275,-3701.029710,-66343.870127
109.505709,-17616.901420,22650.301825,-75996.673402
109.508264,19541.436869,-4293.194464,-55924.971354
109.510825,12879.583391,4885.359217,-64045.583633
109.513385,-1184.329507,4145.153275,-71553.319513
109.515945,5329.482782,1332.370696,-66190.651027
109.518506,3997.112087,3256.906145,-63892.364533
109.521066,10510.924376,3997.112087,-63739.145434
109.523627,-2368.659014,7698.141797,-68795.375720
109.526187,2664.741391,9770.718434,-67416.403824
109.528747,7550.100608,8586.388927,-63892.364533
109.531308,148.041188,5921.647536,-67722.842023
109.533868,-6069.688724,11399.171507,-71400.100414
109.536429,23390.507767,-9178.553681,-60674.763442
109.538989,5033.400406,-3256.906145,-66956.746525
109.541549,-7402.059420,7994.224174,-68948.594820
109.544110,19837.519246,-3256.906145,-60215.106143
109.546670,10658.965565,-6661.853478,-65424.555529
109.549230,-5477.523971,-6217.729913,-70787.224015
109.551791,19245.354492,8290.306550,-61747.297139
109.554351,0.000000,22354.219448,-70480.785816
109.556912,7105.977043,-19837.519246,-63279.488135
109.559472,7105.977043,-16728.654289,-64505.240932
109.562032,-1628.453072,-6217.729913,-69408.252119
109.564593,20133.601622,-9622.677246,-62973.049936
109.567153,148.041188,-22650.301825,-68642.156621
109.569714,6217.729913,4293.194464,-64811.679131
109.572274,15988.448347,10658.965565,-64045.583633
109.574834,3404.947333,0.000000,-66037.431928
109.577395,0.000000,-20429.683999,-68029.280222
109.579955,8882.471304,3108.864956,-66497.089226
109.582516,-1184.329507,22058.137072,-67569.622924
109.585076,1924.535449,5921.647536,-62819.830836
109.587636,-2072.576638,-6809.894666,-68029.280222
109.590197,10955.047942,1776.494261,-67722.842023
109.592757,17320.819043,10066.800811,-64658.460031
109.595318,-10066.800811,18801.230927,-67416.403824
109.597878,4441.235652,13767.830521,-66497.089226
109.600438,11547.212695,5773.606348,-65424.555529
109.602999,-10066.800811,8734.430116,-70787.224015
109.605559,21614.013506,-148.041188,-62666.611736
109.608119,11695.253884,19541.436869,-65424.555529
109.610680,-2072.576638,14063.912898,-66343.870127
109.613244,7698.141797,5625.565159,-64811.679131
109.615808,-11251.130318,26499.372724,-71400.100414
109.618372,17616.901420,12435.459826,-61287.639840
109.620936,4885.359217,296.082377,-65884.212828
109.623501,-9474.636058,8882.471304,-71093.662214
109.626065,4441.235652,-3997.112087,-66497.089226
109.628629,21317.931130,-11399.171507,-61594.078039
109.631193,8882.471304,-11103.089130,-66650.308326
109.633757,-8290.306550,-1628.453072,-69714.690318
109.636321,9918.759623,740.205942,-62360.173537
109.638885,6661.853478,-4737.318029,-65577.774629
109.641449,5625.565159,-13323.706956,-67722.842023
109.644014,4885.359217,-14508.036463,-66037.431928
109.646578,12731.542202,-24130.713709,-66190.651027
109.649142,5033.400406,7402.059420,-67263.184724
109.651706,-1924.535449,1480.411884,-68335.718422
109.654270,6217.729913,-13323.706956,-63279.488135
109.656834,14952.160028,2812.782580,-65577.774629
109.659398,444.123565,2368.659014,-70021.128517
109.661962,2516.700203,-14804.118840,-65730.993728
109.664527,8438.347739,8586.388927,-64964.898230
109.667091,3256.906145,444.123565,-67263.184724
109.669655,4737.318029,-4145.153275,-65577.774629
109.672219,14804.118840,-9918.759623,-64198.802732
109.674783,-296.082377,18505.148550,-69255.033019
109.677347,592.164754,-5329.482782,-63279.488135
109.679911,9030.512492,-592.164754,-65424.555529
109.682475,2960.823768,26499.372724,-69101.813920
109.685040,13027.624579,-11547.212695,-62053.735338
109.687604,-5477.523971,15988.448347,-69561.471218
109.690168,-8290.306550,29904.320057,-69714.690318
109.692732,25167.002028,14063.912898,-58223.257848
109.695296,-4885.359217,-1036.288319,-70480.785816
109.697860,11103.089130,-2368.659014,-66803.527426
109.700424,7994.224174,27979.784608,-67876.061123
109.702988,8734.430116,16136.489536,-62053.735338
109.705553,13175.665768,-1480.411884,-60368.325242
109.708117,-3404.947333,6809.894666,-71706.538613
109.710681,-6365.771101,15692.365970,-69867.909418
109.713245,25018.960840,16876.695478,-57457.162350
109.715812,-10066.800811,5329.482782,-70174.347617
109.718380,-5033.400406,-9622.677246,-72012.976812
109.720947,27535.661042,-14211.954086,-59755.448844
109.723515,5477.523971,2664.741391,-67263.184724
109.726082,-13175.665768,7402.059420,-70940.443115
109.728650,16580.613101,-11843.295072,-61747.297139
109.731217,8734.430116,3701.029710,-62513.392637
109.733785,296.082377,-3552.988522,-67416.403824
109.736352,4589.276840,-25759.166782,-66343.870127
109.738920,16136.489536,-17024.736666,-66650.308326
109.741487,148.041188,-1924.535449,-67569.622924
109.744055,1036.288319,-740.205942,-65884.212828
109.746622,6513.812290,-17616.901420,-66037.431928
109.749190,9622.677246,-8438.347739,-67263.184724
109.751757,5921.647536,-5921.647536,-67109.965625
109.754325,444.123565,-11695.253884,-65424.555529
109.756892,13027.624579,-1036.288319,-64505.240932
109.759459,14359.995275,-3701.029710,-64352.021832
109.762027,2516.700203,-16876.695478,-66803.527426
109.764594,-3404.947333,31680.814318,-69867.909418
109.767162,740.205942,15988.448347,-65271.336430
109.769729,10362.883188,-7105.977043,-60981.201641
109.772297,-1480.411884,4441.235652,-69714.690318
109.774864,6217.729913,24130.713709,-69101.813920
109.777432,3849.070898,1480.411884,-63892.364533
109.779999,10510.924376,-3997.112087,-61594.078039
109.782567,-6069.688724,25907.207970,-71706.538613
109.785134,-7105.977043,23390.507767,-70327.566716
109.787702,592.164754,14211.954086,-68948.594820
