#time,accel_x,accel_y,accel_z
259.865286,10214.842000,7402.059420,-64658.460031
259.867866,-7254.018232,-1924.535449,-69561.471218
259.870446,-444.123565,5033.400406,-66956.746525
259.873027,13915.871710,6957.935855,-62053.735338
259.875607,13915.871710,2072.576638,-63432.707234
259.878187,2368.659014,-1776.494261,-68642.156621
259.880767,-4885.359217,-2368.659014,-69867.909418
259.883347,5181.441594,4737.318029,-65424.555529
259.885927,18505.148550,3849.070898,-61440.858940
259.888507,14508.036463,1332.370696,-64811.679131
259.891098,-6069.688724,-5625.565159,-70480.785816
259.893688,-6365.771101,3701.029710,-72779.072310
259.896279,-6513.812290,14211.954086,-69867.909418
259.898870,18061.024985,10807.006753,-60981.201641
259.901460,13027.624579,11103.089130,-64045.583633
259.904051,-4737.318029,3108.864956,-69408.252119
259.906642,-5921.647536,-888.247130,-68795.375720
259.909232,4885.359217,3701.029710,-66497.089226
259.911823,-7994.224174,1184.329507,-65730.993728
259.914414,37010.297100,4293.194464,-57763.600549
259.917004,1184.329507,2812.782580,-72472.634111
259.919595,-34049.473332,-11103.089130,-73698.386908
259.922186,17172.777854,-7698.141797,-66650.308326
259.924776,26943.496289,13323.706956,-63739.145434
259.927367,7105.977043,148.041188,-70787.224015
259.929957,-6513.812290,-4737.318029,-64658.460031
259.932548,-14656.077652,2220.617826,-63279.488135
259.935139,-13175.665768,-3997.112087,-66650.308326
259.937729,14063.912898,592.164754,-66497.089226
259.940320,40415.244433,8142.265362,-70021.128517
259.942911,-888.247130,-296.082377,-71093.662214
259.945501,-5921.647536,2960.823768,-64352.021832
259.948092,7402.059420,740.205942,-60981.201641
259.950683,19985.560434,10658.965565,-64811.679131
259.953273,7994.224174,-3849.070898,-70787.224015
259.955864,13323.706956,14508.036463,-58989.353346
259.958454,-5773.606348,-2516.700203,-69867.909418
259.961045,6365.771101,888.247130,-69255.033019
259.963636,33605.349767,2220.617826,-62513.392637
259.966226,-3108.864956,-1332.370696,-69255.033019
259.968817,11991.336260,4589.276840,-62973.049936
259.971408,-13027.624579,-8142.265362,-72932.291410
259.973998,8290.306550,0.000000,-64505.240932
259.976589,43672.150578,16580.613101,-56537.847752
259.979180,-2368.659014,7402.059420,-65884.212828
259.981770,-14952.160028,-888.247130,-70174.347617
259.984361,25463.084405,-3849.070898,-64352.021832
259.986951,22650.301825,12287.418637,-62513.392637
259.989542,-1184.329507,2072.576638,-68948.594820
259.992133,0.000000,-5773.606348,-69561.471218
259.994728,22650.301825,3256.906145,-62819.830836
259.997324,24870.919651,7254.018232,-62053.735338
259.999919,2664.741391,-3404.947333,-64352.021832
260.002515,-3849.070898,-2220.617826,-68642.156621
260.005110,3552.988522,-2664.741391,-67109.965625
260.007706,4293.194464,-1332.370696,-69714.690318
260.010301,31384.731941,1184.329507,-62666.611736
260.012897,14656.077652,8882.471304,-63279.488135
260.015492,592.164754,5033.400406,-70480.785816
260.018088,-5033.400406,2516.700203,-69561.471218
260.020683,3404.947333,-5625.565159,-62360.173537
260.023279,-18653.189738,-3849.070898,-65118.117330
260.025874,8438.347739,1332.370696,-73085.510509
260.028470,68691.111418,9622.677246,-57150.724151
260.031065,-48261.427418,-9030.512492,-70634.004916
260.033661,-30940.608376,2812.782580,-70480.785816
260.036256,45448.644839,6513.812290,-68642.156621
260.038852,53886.992578,-1776.494261,-68795.375720
260.041447,-8586.388927,-3108.864956,-60215.106143
260.044043,-66914.617157,-11547.212695,-64505.240932
260.046638,-21465.972318,-5921.647536,-71859.757712
260.049234,63953.793389,8438.347739,-64505.240932
260.051829,31680.814318,-2664.741391,-67876.061123
260.054425,-22946.384202,-5181.441594,-63739.145434
260.057020,-35825.967593,-6957.935855,-65118.117330
260.059616,9326.594869,4293.194464,-72319.415011
260.062211,46188.850781,19689.478057,-62513.392637
260.064807,-8734.430116,1036.288319,-66956.746525
260.067402,-19541.436869,9326.594869,-63279.488135
260.069998,-1480.411884,6809.894666,-65884.212828
260.072593,30052.361245,3552.988522,-65118.117330
260.075189,-3108.864956,1332.370696,-70634.004916
260.077784,-888.247130,-888.247130,-60674.763442
260.080380,6217.729913,6069.688724,-63279.488135
260.082975,2664.741391,1036.288319,-73698.386908
260.085571,-11843.295072,-11547.212695,-70940.443115
260.088166,-7994.224174,-7550.100608,-66037.431928
260.090762,17320.819043,8290.306550,-62360.173537
260.093357,13915.871710,3552.988522,-62206.954438
260.095953,592.164754,148.041188,-70480.785816
260.098549,-2368.659014,5181.441594,-66190.651027
260.101145,-13471.748144,-10510.924376,-69867.909418
260.103742,-444.123565,-1036.288319,-68488.937521
260.106338,14211.954086,10214.842000,-63585.926334
260.108935,9326.594869,444.123565,-64811.679131
260.111531,-12731.542202,-5181.441594,-68642.156621
260.114127,-12731.542202,-3256.906145,-66803.527426
260.116724,20725.766376,5625.565159,-66956.746525
260.119320,29164.114115,8142.265362,-65424.555529
260.121917,8290.306550,-2516.700203,-66803.527426
260.124513,-13027.624579,-12287.418637,-62053.735338
260.127110,-55811.528027,-8586.388927,-71246.881314
260.129706,70615.646867,12583.501014,-62666.611736
260.132302,47077.097911,7254.018232,-70021.128517
260.134899,-8734.430116,-6661.853478,-56078.190454
260.137495,-67358.740722,-444.123565,-68642.156621
260.140092,41007.409187,7846.182985,-67722.842023
260.142688,54331.116143,6513.812290,-78601.398095
260.145284,28127.825796,-888.247130,-55771.752254
260.147881,-63509.669824,-15248.242405,-70021.128517
260.150477,-21614.013506,-1628.453072,-65271.336430
260.153074,45892.768404,9622.677246,-68642.156621
260.155670,46040.809592,2368.659014,-68029.280222
260.158266,0.000000,-3997.112087,-60368.325242
260.160863,-43228.027013,-7105.977043,-74004.825107
260.163459,19985.560434,9326.594869,-61594.078039
260.166056,34937.720462,7402.059420,-69101.813920
260.168652,8438.347739,-1480.411884,-64505.240932
260.171248,-19541.436869,-5921.647536,-61747.297139
260.173845,18061.024985,7994.224174,-64658.460031
260.176441,4441.235652,-148.041188,-72779.072310
260.179038,5477.523971,-4737.318029,-66497.089226
260.181634,-8882.471304,-7994.224174,-68182.499322
260.184231,7846.182985,-3552.988522,-67569.622924
260.186827,41007.409187,7698.141797,-58989.353346
260.189423,-8586.388927,-5329.482782,-73391.948708
260.192020,-2960.823768,5181.441594,-67876.061123
260.194616,27239.578666,7402.059420,-58836.134246
260.197213,26055.249158,10510.924376,-60981.201641
260.199809,-15396.283594,-1628.453072,-71246.881314
260.202280,3404.947333,-3997.112087,-70021.128517
260.204751,24722.878463,4145.153275,-61900.516238
260.207223,2812.782580,-1480.411884,-68182.499322
260.209694,12879.583391,3256.906145,-68029.280222
260.212165,32272.979071,7105.977043,-60061.887043
260.214637,-5625.565159,3552.988522,-68335.718422
260.217108,-28127.825796,-5181.441594,-71093.662214
260.219579,7254.018232,-444.123565,-56537.847752
260.222051,33309.267390,7698.141797,-72625.853210
260.224522,46929.056723,444.123565,-59449.010645
260.226994,-71355.852809,-22650.301825,-68642.156621
260.229465,-32865.143825,4145.153275,-69561.471218
260.231936,55219.363273,8882.471304,-68948.594820
260.234408,47965.345042,4589.276840,-69561.471218
260.236879,1628.453072,444.123565,-60674.763442
260.239350,-79053.994606,-18357.107362,-65577.774629
260.241822,-26647.413912,-2072.576638,-69408.252119
260.244293,64249.875766,14063.912898,-66343.870127
260.246765,32272.979071,4441.235652,-64045.583633
260.249236,-44560.397708,3552.988522,-66037.431928
260.251707,-34493.596897,0.000000,-65424.555529
260.254179,11103.089130,3997.112087,-71553.319513
260.256650,44708.438897,2960.823768,-68948.594820
260.259121,10510.924376,-4589.276840,-62206.954438
260.261593,-38194.626607,-5033.400406,-65577.774629
260.264064,-8142.265362,3552.988522,-66803.527426
260.266536,45152.562462,-7994.224174,-67416.403824
260.269007,-7550.100608,-1480.411884,-69408.252119
260.271478,-1924.535449,4737.318029,-59449.010645
260.273950,21614.013506,14211.954086,-60827.982541
260.276421,33901.432144,7846.182985,-62206.954438
260.278892,-25759.166782,-14063.912898,-74311.263306
260.281364,-10510.924376,-2812.782580,-62206.954438
260.283835,15840.407159,3108.864956,-63279.488135
260.286307,3404.947333,-592.164754,-70480.785816
260.288778,5773.606348,-444.123565,-68642.156621
260.291249,-4589.276840,-5033.400406,-65424.555529
260.293721,1924.535449,-3256.906145,-63126.269035
260.296192,3108.864956,2812.782580,-68642.156621
260.298663,-3108.864956,-740.205942,-69867.909418
260.301171,-12287.418637,-592.164754,-67263.184724
260.303680,5329.482782,2072.576638,-62666.611736
260.306188,6069.688724,-2368.659014,-71400.100414
260.308696,33161.226202,14063.912898,-64811.679131
260.311204,6513.812290,148.041188,-66343.870127
260.313712,-30644.525999,1332.370696,-58376.476948
260.316220,-23242.466579,8734.430116,-72625.853210
260.318728,64101.834577,14804.118840,-73238.729609
260.321236,39230.914926,1480.411884,-58070.038748
260.323744,-58180.187041,-4589.276840,-68642.156621
260.326252,-30200.402434,-2664.741391,-67722.842023
260.328760,76537.294403,10510.924376,-69255.033019
260.331268,57291.939911,9918.759623,-68335.718422
260.333776,-13915.871710,3701.029710,-59755.448844
260.336284,-58624.310606,-15396.283594,-68182.499322
260.338792,15840.407159,7550.100608,-61594.078039
260.341300,53146.786636,296.082377,-73238.729609
260.343808,27387.619854,-148.041188,-63739.145434
260.346316,-19837.519246,-2220.617826,-64045.583633
260.348824,-33753.390955,-17912.983796,-71400.100414
260.351332,27239.578666,2664.741391,-72625.853210
260.353840,49001.633360,11991.336260,-64964.898230
260.356348,-17912.983796,-1628.453072,-66037.431928
260.358856,-37158.338288,-2516.700203,-69408.252119
260.361364,33457.308578,-148.041188,-66497.089226
260.363872,32124.937883,14952.160028,-63279.488135
260.366380,-9770.718434,-296.082377,-64505.240932
260.368888,-17468.860231,-10362.883188,-70021.128517
260.371397,44264.315332,15988.448347,-61594.078039
260.373905,21465.972318,8290.306550,-66956.746525
260.376413,-13027.624579,-1776.494261,-72625.853210
260.378921,-10214.842000,-5921.647536,-65118.117330
260.381429,10214.842000,4589.276840,-68488.937521
260.383937,32865.143825,6957.935855,-63279.488135
260.386445,6365.771101,1036.288319,-68795.375720
260.388953,3404.947333,-1776.494261,-64505.240932
260.391461,2516.700203,7402.059420,-64505.240932
260.393969,25907.207970,16136.489536,-66650.308326
260.396477,-18061.024985,11103.089130,-75996.673402
260.398985,25611.125593,-4589.276840,-53933.123059
260.401519,-28719.990550,1924.535449,-65884.212828
260.404054,6957.935855,13915.871710,-77222.426198
260.406589,70467.605678,10510.924376,-59908.667944
260.409123,-63065.546258,-4589.276840,-69408.252119
260.411658,-32569.061448,-888.247130,-62206.954438
260.414192,22650.301825,3849.070898,-74158.044206
260.416727,79053.994606,5625.565159,-63892.364533
260.419261,9178.553681,3849.070898,-65730.993728
260.421796,-72096.058751,-12139.377449,-65424.555529
260.424330,-35085.761651,-5329.482782,-65577.774629
260.426865,41155.450375,4885.359217,-69255.033019
260.429400,40859.367998,1480.411884,-72625.853210
260.431934,-13027.624579,5181.441594,-61287.639840
260.434469,-38490.708984,-6217.729913,-63739.145434
260.437003,-9178.553681,4441.235652,-72932.291410
260.439538,60252.763679,13323.706956,-63126.269035
260.442072,4145.153275,7105.977043,-68335.718422
260.444607,-34049.473332,-2812.782580,-66037.431928
260.447141,-6661.853478,8142.265362,-63126.269035
260.449676,14063.912898,11991.336260,-71859.757712
260.452210,14211.954086,1628.453072,-70327.566716
260.454745,-9178.553681,-4737.318029,-60981.201641
260.457280,-3108.864956,7550.100608,-62973.049936
260.459814,38638.750172,11695.253884,-62206.954438
260.462349,-34345.555709,-8438.347739,-77988.521696
260.464883,17468.860231,10362.883188,-56997.505051
260.467418,-12879.583391,10658.965565,-69561.471218
260.469952,-11399.171507,-9030.512492,-75690.235202
260.472487,28275.866984,2516.700203,-62513.392637
260.475021,8882.471304,15692.365970,-60215.106143
260.477556,-17764.942608,-296.082377,-67416.403824
260.480090,-12435.459826,1332.370696,-72012.976812
260.482625,4737.318029,8734.430116,-62973.049936
260.485160,16580.613101,1628.453072,-64811.679131
260.487694,11991.336260,5921.647536,-69255.033019
260.490229,11695.253884,9178.553681,-67722.842023
260.492763,-444.123565,-7994.224174,-66650.308326
260.495298,-35974.008781,-6957.935855,-64198.802732
260.497832,14063.912898,5477.523971,-67876.061123
260.500367,49445.756926,8734.430116,-75383.797003
260.502917,33013.185013,-1332.370696,-51634.836565
260.505467,-78165.747475,-9030.512492,-74311.263306
260.508016,-26499.372724,-3256.906145,-67109.965625
260.510566,85123.683330,17172.777854,-66650.308326
260.513116,62769.463882,12435.459826,-60981.201641
260.515666,-45596.686027,4145.153275,-69101.813920
260.518216,-27387.619854,-9474.636058,-62513.392637
260.520766,16876.695478,10362.883188,-65271.336430
260.523315,56107.610404,8142.265362,-69255.033019
260.525865,14656.077652,592.164754,-63432.707234
260.528415,-25759.166782,1776.494261,-65118.117330
260.530965,-20873.807564,-5625.565159,-69101.813920
260.533515,30792.567187,1480.411884,-64964.898230
260.536065,63657.711012,13471.748144,-59449.010645
260.538615,-14656.077652,6365.771101,-61900.516238
260.541164,-24574.837274,-7254.018232,-71859.757712
260.543714,16580.613101,1628.453072,-71093.662214
260.546264,19097.313304,148.041188,-65271.336430
260.548814,18061.024985,13175.665768,-58529.696047
260.551364,-2072.576638,-6513.812290,-67263.184724
260.553914,-4293.194464,-1480.411884,-76915.987999
260.556463,40119.162056,13175.665768,-59295.791545
260.559013,8438.347739,-592.164754,-63126.269035
260.561563,-18949.272115,-1776.494261,-67876.061123
260.564113,13027.624579,4441.235652,-69867.909418
260.566663,31088.649564,5329.482782,-62666.611736
260.569213,5625.565159,-3701.029710,-66650.308326
260.571762,-2220.617826,-6513.812290,-67569.622924
260.574312,12583.501014,148.041188,-63585.926334
260.576862,18653.189738,12139.377449,-64658.460031
260.579412,-26647.413912,-7698.141797,-71706.538613
260.581962,11547.212695,9474.636058,-58223.257848
260.584512,20577.725188,5477.523971,-71859.757712
260.587062,43672.150578,10658.965565,-62819.830836
260.589611,-60548.846056,-17912.983796,-70174.347617
260.592161,-28275.866984,8290.306550,-73238.729609
260.594711,62621.422693,9474.636058,-65577.774629
260.597261,38194.626607,3552.988522,-70021.128517
260.599811,-7698.141797,-3256.906145,-61594.078039
260.602361,-74612.758954,-12583.501014,-64811.679131
260.604922,-15396.283594,-4589.276840,-72472.634111
260.607483,60548.846056,15692.365970,-66497.089226
260.610044,23982.672521,592.164754,-68642.156621
260.612605,-22502.260637,-4885.359217,-62819.830836
260.615166,-33309.267390,-3552.988522,-64352.021832
260.617727,6661.853478,4145.153275,-72012.976812
260.620289,31828.855506,3404.947333,-67722.842023
260.622850,7254.018232,-6809.894666,-61134.420740
260.625411,-42339.779882,2812.782580,-70940.443115
260.627972,-6809.894666,-6365.771101,-69101.813920
260.630533,49297.715737,9622.677246,-60981.201641
260.633094,2516.700203,8734.430116,-66956.746525
260.635656,-22354.219448,3256.906145,-64045.583633
260.638217,4441.235652,3997.112087,-66190.651027
260.640778,444.123565,1776.494261,-73085.510509
260.643339,15100.201217,-3404.947333,-62819.830836
260.645900,-2812.782580,-740.205942,-64198.802732
260.648461,-9030.512492,592.164754,-70174.347617
260.651022,23242.466579,3552.988522,-64045.583633
260.653584,-1628.453072,1184.329507,-66497.089226
260.656145,-10510.924376,-444.123565,-68029.280222
260.658706,-5921.647536,-148.041188,-63892.364533
260.661267,-12287.418637,-5773.606348,-68488.937521
260.663828,23834.631332,5329.482782,-66956.746525
260.666389,30496.484810,6365.771101,-63585.926334
260.668951,4885.359217,6809.894666,-68795.375720
260.671512,-18801.230927,-4885.359217,-61440.858940
260.674073,-41155.450375,-10658.965565,-72625.853210
260.676634,86159.971649,17764.942608,-60827.982541
260.679195,29460.196492,3997.112087,-70940.443115
260.681756,-21614.013506,-4737.318029,-57610.381450
260.684317,-61733.175563,6365.771101,-70480.785816
260.686886,27979.784608,8734.430116,-59755.448844
260.689454,73428.429446,7846.182985,-73391.948708
260.692023,23094.425390,4589.276840,-67416.403824
260.694591,-36418.132346,-8438.347739,-59908.667944
260.697160,-38046.585419,-7402.059420,-69255.033019
260.699728,50482.045244,11547.212695,-66190.651027
260.702296,50778.127621,3404.947333,-68795.375720
260.704865,-444.123565,3849.070898,-58682.915147
260.707433,-47521.221476,-11251.130318,-71553.319513
260.710002,4145.153275,-3997.112087,-67876.061123
260.712570,70171.523302,15396.283594,-59295.791545
260.715139,-14656.077652,-10955.047942,-75383.797003
260.717707,-18357.107362,-9030.512492,-62819.830836
260.720275,7846.182985,740.205942,-64811.679131
260.722844,34197.514520,8142.265362,-64658.460031
260.725412,19393.395680,-592.164754,-66190.651027
260.727981,-444.123565,-296.082377,-62206.954438
260.730549,-5773.606348,-2516.700203,-73085.510509
260.733118,15840.407159,6217.729913,-67263.184724
260.735686,23094.425390,5329.482782,-62206.954438
260.738254,1184.329507,5329.482782,-65271.336430
260.740823,-2812.782580,3108.864956,-70480.785816
260.743391,16876.695478,-1480.411884,-66650.308326
260.745960,25018.960840,13323.706956,-62053.735338
260.748528,2516.700203,15544.324782,-70021.128517
260.751096,8438.347739,-3108.864956,-63739.145434
260.753665,-1036.288319,-6217.729913,-65271.336430
260.756233,-13767.830521,148.041188,-65577.774629
260.758802,10362.883188,5773.606348,-71859.757712
260.761370,50037.921679,15248.242405,-66497.089226
260.763939,-23686.590144,-2812.782580,-64505.240932
260.766507,-37306.379477,-6661.853478,-59602.229744
260.769075,-1036.288319,2812.782580,-78754.617194
260.771644,80238.324113,6217.729913,-63585.926334
260.774212,25611.125593,11843.295072,-66497.089226
260.776781,-48113.386230,-9474.636058,-63279.488135
260.779349,-48409.468607,-1184.329507,-63126.269035
260.781918,29016.072926,7402.059420,-74311.263306
260.784486,48853.592172,5773.606348,-67109.965625
260.787054,-5477.523971,-4441.235652,-64505.240932
260.789626,-48705.550984,-4293.194464,-66190.651027
260.792197,-1628.453072,10510.924376,-65730.993728
260.794769,37158.338288,6217.729913,-71553.319513
260.797341,11251.130318,-2368.659014,-71706.538613
260.799912,-9474.636058,-14952.160028,-62360.173537
260.802484,-18061.024985,-296.082377,-65271.336430
260.805055,33605.349767,9474.636058,-64505.240932
260.807627,29460.196492,7846.182985,-63279.488135
260.810198,-35677.926404,-2516.700203,-65730.993728
260.812770,-1332.370696,-740.205942,-65271.336430
260.815341,1332.370696,-1184.329507,-73085.510509
260.817913,22354.219448,444.123565,-63279.488135
260.820484,15248.242405,-4589.276840,-59908.667944
260.823056,-30496.484810,1332.370696,-71859.757712
260.825627,2368.659014,-888.247130,-69255.033019
260.828199,23834.631332,2220.617826,-61134.420740
260.830770,-7105.977043,-740.205942,-69408.252119
260.833342,-25315.043216,-740.205942,-67109.965625
260.835913,2072.576638,1184.329507,-65424.555529
260.838485,26943.496289,5477.523971,-69714.690318
260.841056,22502.260637,7698.141797,-67722.842023
260.843628,-8882.471304,-2812.782580,-65577.774629
260.846199,-24722.878463,592.164754,-59449.010645
260.848771,-3701.029710,-740.205942,-72166.195912
260.851343,78757.912229,19393.395680,-70021.128517
260.853914,21762.054695,-2960.823768,-60827.982541
260.856486,-59808.640114,2516.700203,-62819.830836
260.859057,-40563.285622,-3404.947333,-69408.252119
260.861629,52110.498317,2072.576638,-77222.426198
260.864200,59808.640114,1184.329507,-66803.527426
260.866772,-9770.718434,-1036.288319,-57610.381450
260.869343,-54923.280896,-9030.512492,-67263.184724
260.871915,8142.265362,2960.823768,-65884.212828
260.874486,59660.598925,11695.253884,-70787.224015
260.877058,27091.537477,-6069.688724,-66037.431928
260.879629,-21762.054695,-5921.647536,-60674.763442
260.882201,-20429.683999,9918.759623,-68029.280222
260.884772,1480.411884,444.123565,-72779.072310
260.887344,44708.438897,10362.883188,-69408.252119
260.889915,-24130.713709,-3552.988522,-66037.431928
260.892489,-17912.983796,-2072.576638,-63126.269035
260.895063,27091.537477,11399.171507,-72472.634111
260.897637,39971.120868,4293.194464,-61134.420740
260.900211,9770.718434,5033.400406,-59142.572446
260.902785,-44708.438897,-1924.535449,-79061.055394
260.905359,23686.590144,4145.153275,-62360.173537
260.907932,41451.532752,10658.965565,-62360.173537
260.910506,3849.070898,4885.359217,-67569.622924
260.913080,-7994.224174,2220.617826,-67263.184724
260.915654,-2072.576638,-12731.542202,-68795.375720
260.918228,26055.249158,7402.059420,-67569.622924
260.920802,39230.914926,8142.265362,-62666.611736
260.923376,-31532.773129,-5921.647536,-74158.044206
260.925949,-9030.512492,-9918.759623,-61287.639840
260.928523,7402.059420,9326.594869,-63126.269035
260.931097,33605.349767,6069.688724,-74004.825107
260.933671,39675.038491,444.123565,-63126.269035
260.936245,-79498.118171,-20725.766376,-68795.375720
260.938819,-10362.883188,5625.565159,-60981.201641
260.941393,28571.949361,5921.647536,-69714.690318
260.943967,41747.615129,3404.947333,-69561.471218
260.946540,-14063.912898,-7402.059420,-61747.297139
260.949114,-80534.406490,-10955.047942,-64811.679131
260.951688,-7105.977043,296.082377,-71400.100414
260.954262,61141.010809,14508.036463,-67722.842023
260.956836,31532.773129,888.247130,-66343.870127
260.959410,-27831.743419,-5033.400406,-63739.145434
260.961984,-59808.640114,-4441.235652,-68795.375720
260.964557,31236.690752,11843.295072,-66343.870127
260.967131,41451.532752,5181.441594,-68795.375720
260.969705,7698.141797,888.247130,-59755.448844
260.972279,-71355.852809,-10510.924376,-78448.178995
260.974853,40415.244433,-148.041188,-58989.353346
260.977427,31088.649564,12583.501014,-70940.443115
260.980001,-7994.224174,-3256.906145,-55465.314055
260.982574,-31680.814318,-9030.512492,-73085.510509
260.985148,-14804.118840,-6809.894666,-76303.111601
260.987722,54775.239708,10807.006753,-56844.285952
260.990296,2664.741391,6957.935855,-67722.842023
260.992870,-33457.308578,-9770.718434,-68795.375720
260.995374,-14656.077652,-6809.894666,-74004.825107
260.997879,27091.537477,7994.224174,-59755.448844
261.000383,4145.153275,3108.864956,-67416.403824
261.002887,-26203.290347,-7402.059420,-68182.499322
261.005392,6809.894666,2812.782580,-65118.117330
261.007896,30940.608376,12879.583391,-66803.527426
261.010401,9918.759623,1776.494261,-70174.347617
261.012905,-18209.066173,-3404.947333,-64811.679131
261.015410,-40415.244433,-7550.100608,-67569.622924
261.017914,52258.539505,5921.647536,-67569.622924
261.020418,54035.033766,6661.853478,-69408.252119
261.022923,-14804.118840,1184.329507,-57303.943250
261.025427,-57143.898722,-5033.400406,-66497.089226
261.027932,17024.736666,-148.041188,-66650.308326
261.030436,59068.434172,9918.759623,-76762.768900
261.032940,48853.592172,4589.276840,-55312.094956
261.035445,-64842.040519,-6809.894666,-72779.072310
261.037949,-18653.189738,-1776.494261,-62360.173537
261.040454,34493.596897,12139.377449,-66343.870127
261.042958,48113.386230,3849.070898,-74311.263306
261.045462,6365.771101,1776.494261,-62973.049936
261.047967,-30200.402434,6217.729913,-63126.269035
261.050471,15840.407159,7550.100608,-65424.555529
261.052976,50482.045244,8438.347739,-62819.830836
261.055480,-23390.507767,-5625.565159,-75077.358804
261.057984,-2368.659014,3997.112087,-57916.819649
261.060489,5181.441594,3701.029710,-67416.403824
261.062993,27535.661042,444.123565,-70327.566716
261.065498,11843.295072,3108.864956,-66803.527426
261.068002,-11251.130318,-3108.864956,-65271.336430
261.070506,2220.617826,4737.318029,-65577.774629
261.073011,22798.343014,2072.576638,-65730.993728
261.075515,13471.748144,1332.370696,-67569.622924
261.078020,-740.205942,1480.411884,-67263.184724
261.080524,9918.759623,2664.741391,-61287.639840
261.083028,10510.924376,17172.777854,-68335.718422
261.085533,19689.478057,4145.153275,-68029.280222
261.088037,-7402.059420,-1480.411884,-65884.212828
261.090542,-21317.931130,-1184.329507,-64505.240932
261.093046,0.000000,11103.089130,-68335.718422
261.095569,54331.116143,18653.189738,-67722.842023
261.098093,8586.388927,148.041188,-64045.583633
261.100616,-42635.862259,-10510.924376,-59449.010645
261.103139,-4441.235652,7402.059420,-77069.207099
261.105663,78757.912229,9474.636058,-61900.516238
261.108186,23982.672521,10807.006753,-69255.033019
261.110709,-36270.091158,-3552.988522,-61594.078039
261.113233,-63657.711012,-7846.182985,-66190.651027
261.115756,11843.295072,-888.247130,-70021.128517
261.118280,63805.752200,9918.759623,-65271.336430
261.120803,18801.230927,-1776.494261,-66190.651027
261.123326,-46336.891969,-8586.388927,-64964.898230
261.125850,-30496.484810,-1480.411884,-69101.813920
261.128373,43672.150578,3701.029710,-68029.280222
261.130896,17468.860231,7550.100608,-62819.830836
261.133420,-2664.741391,4885.359217,-61747.297139
261.135943,-42783.903448,-4145.153275,-72166.195912
261.138466,26795.455100,7698.141797,-62666.611736
261.140990,4737.318029,-2960.823768,-73851.606007
261.143513,2812.782580,-6217.729913,-58529.696047
261.146036,-23242.466579,-2960.823768,-72012.976812
261.148560,14063.912898,2812.782580,-64198.802732
261.151083,16580.613101,6069.688724,-67569.622924
261.153606,-10510.924376,1480.411884,-73238.729609
261.156130,1184.329507,3552.988522,-61747.297139
261.158653,-5329.482782,2812.782580,-67722.842023
261.161177,-9918.759623,5477.523971,-68182.499322
261.163700,14952.160028,5181.441594,-65118.117330
261.166223,-1924.535449,-4737.318029,-69101.813920
261.168747,16728.654289,3108.864956,-66956.746525
261.171270,6365.771101,1776.494261,-63279.488135
261.173793,-19837.519246,1184.329507,-65730.993728
261.176317,-10955.047942,7254.018232,-70021.128517
261.178840,63953.793389,18653.189738,-66037.431928
261.181363,7698.141797,-3108.864956,-64964.898230
261.183887,-38490.708984,11103.089130,-60827.982541
261.186410,-41155.450375,9622.677246,-71706.538613
261.188933,61141.010809,21762.054695,-63126.269035
261.191457,65582.246461,4885.359217,-68335.718422
261.193980,740.205942,9178.553681,-60674.763442
261.196517,-55811.528027,-11695.253884,-71246.881314
261.199055,5921.647536,2812.782580,-61440.858940
261.201593,49593.798114,13915.871710,-67569.622924
261.204131,35381.844028,1036.288319,-69561.471218
261.206669,-13767.830521,-3849.070898,-67109.965625
261.209206,-7846.182985,2072.576638,-66190.651027
261.211744,29460.196492,-3552.988522,-62666.611736
261.214282,41451.532752,-1628.453072,-63892.364533
261.216820,-18653.189738,-10510.924376,-73851.606007
261.219358,-12731.542202,-2368.659014,-62053.735338
261.221896,35233.802839,2664.741391,-64045.583633
261.224434,40563.285622,13619.789333,-62206.954438
261.226972,-19689.478057,-7846.182985,-73545.167808
261.229510,-2960.823768,-7402.059420,-64198.802732
261.232048,26203.290347,7550.100608,-58989.353346
261.234586,23094.425390,9622.677246,-66497.089226
261.237124,5181.441594,-4441.235652,-68029.280222
261.239661,9326.594869,2516.700203,-65118.117330
261.242199,3849.070898,8142.265362,-66956.746525
261.244737,-2664.741391,-2812.782580,-72779.072310
261.247275,17764.942608,-3108.864956,-59755.448844
261.249813,-6661.853478,1036.288319,-63892.364533
261.252351,-4885.359217,3108.864956,-72472.634111
261.254889,45004.521274,22798.343014,-65577.774629
261.257427,-1628.453072,-2220.617826,-63279.488135
261.259965,-20873.807564,-1036.288319,-57763.600549
261.262503,5625.565159,1480.411884,-76303.111601
261.265041,66322.452403,8142.265362,-64964.898230
261.267579,14656.077652,13767.830521,-68948.594820
261.270116,-39823.079680,-4885.359217,-60368.325242
261.272654,-39971.120868,-6513.812290,-64964.898230
261.275192,10807.006753,6661.853478,-71859.757712
261.277730,56107.610404,8438.347739,-65730.993728
261.280268,1332.370696,-1628.453072,-68182.499322
261.282806,-27683.702231,-3552.988522,-59908.667944
261.285344,-24278.754898,-888.247130,-70327.566716
261.287882,49593.798114,6365.771101,-65271.336430
261.290420,20429.683999,3552.988522,-65884.212828
261.292958,-50185.962868,-10214.842000,-73238.729609
261.295496,13471.748144,-2368.659014,-62973.049936
261.298045,27091.537477,12435.459826,-68029.280222
261.300594,-10658.965565,-6661.853478,-69408.252119
261.303143,-13767.830521,-10066.800811,-65884.212828
261.305692,8734.430116,6217.729913,-62360.173537
261.308242,7550.100608,6217.729913,-70327.566716
261.310791,-3849.070898,-2516.700203,-70634.004916
261.313340,5477.523971,5329.482782,-62053.735338
261.315889,-6069.688724,-1036.288319,-66956.746525
261.318439,-9918.759623,1480.411884,-66497.089226
261.320988,10955.047942,3404.947333,-67109.965625
261.323537,12287.418637,5477.523971,-67876.061123
261.326086,11843.295072,3701.029710,-67263.184724
261.328635,-296.082377,148.041188,-65577.774629
261.331185,-23982.672521,-740.205942,-66037.431928
261.333734,-9474.636058,-4885.359217,-69101.813920
261.336283,71207.811620,16728.654289,-67109.965625
261.338832,24278.754898,-592.164754,-67569.622924
261.341381,-48261.427418,740.205942,-66803.527426
261.343931,-14656.077652,-4145.153275,-63432.707234
261.346480,41451.532752,8882.471304,-61900.516238
261.349029,42487.821071,-444.123565,-79367.493593
261.351578,14211.954086,6957.935855,-58223.257848
261.354127,-42635.862259,-12139.377449,-65577.774629
261.356677,-20873.807564,-2516.700203,-69408.252119
261.359226,50334.004056,8882.471304,-64198.802732
261.361775,35677.926404,2220.617826,-71553.319513
261.364324,-1924.535449,2072.576638,-59755.448844
261.366873,-28719.990550,-888.247130,-64964.898230
261.369423,29164.114115,9918.759623,-66343.870127
261.371972,10510.924376,5181.441594,-73851.606007
261.374521,-11399.171507,740.205942,-60981.201641
261.377070,-2220.617826,7846.182985,-63585.926334
261.379619,56255.651592,9918.759623,-60521.544342
261.382169,9622.677246,-296.082377,-67722.842023
261.384718,-24870.919651,-7105.977043,-74617.701505
261.387267,25167.002028,7402.059420,-56078.190454
261.389816,18801.230927,3849.070898,-66956.746525
261.392365,10658.965565,-6069.688724,-70021.128517
261.394915,5477.523971,-1776.494261,-65424.555529
261.397464,5329.482782,740.205942,-66803.527426
261.400020,24722.878463,-3849.070898,-60981.201641
261.402577,6809.894666,444.123565,-65730.993728
261.405133,-32569.061448,-1332.370696,-73851.606007
261.407690,23834.631332,3108.864956,-60674.763442
261.410246,40415.244433,11695.253884,-66190.651027
261.412803,12583.501014,7254.018232,-66497.089226
261.415359,-40119.162056,-18209.066173,-58989.353346
261.417916,-12435.459826,7994.224174,-67263.184724
261.420472,47077.097911,3701.029710,-70021.128517
261.423029,27387.619854,-3256.906145,-68029.280222
261.425585,-11695.253884,-4293.194464,-60981.201641
261.428142,-64101.834577,-10807.006753,-67109.965625
261.430698,-5033.400406,-6513.812290,-70634.004916
261.433255,56699.775157,15248.242405,-62973.049936
261.435811,32569.061448,5625.565159,-64198.802732
261.438368,-49889.880491,-1776.494261,-71246.881314
261.440924,-22502.260637,-9326.594869,-66037.431928
261.443481,26055.249158,13915.871710,-68642.156621
261.446037,21169.889941,3701.029710,-68795.375720
261.448594,13767.830521,4441.235652,-57916.819649
261.451150,-36270.091158,-1924.535449,-70480.785816
261.453707,20873.807564,3108.864956,-65577.774629
261.456263,22206.178260,11251.130318,-67416.403824
261.458820,-17172.777854,-5477.523971,-64964.898230
261.461376,-16432.571912,-2960.823768,-69561.471218
261.463933,-3404.947333,-2516.700203,-70174.347617
261.466489,24574.837274,3108.864956,-64198.802732
261.469046,12583.501014,5329.482782,-63126.269035
261.471602,-25759.166782,-5773.606348,-69867.909418
261.474159,-23686.590144,-3404.947333,-68488.937521
261.476715,26943.496289,4293.194464,-66037.431928
261.479272,34049.473332,4885.359217,-65577.774629
261.481828,-2664.741391,-3997.112087,-66497.089226
261.484384,-17172.777854,-5773.606348,-63892.364533
261.486941,-38934.832549,-592.164754,-67569.622924
261.489497,46632.974346,-2072.576638,-66497.089226
261.492054,44264.315332,7402.059420,-77835.302597
261.494610,7254.018232,-1332.370696,-54086.342159
261.497167,-67950.905476,1480.411884,-71706.538613
261.499723,-14952.160028,-1036.288319,-67416.403824
261.502286,74168.635388,18949.272115,-67722.842023
261.504849,42783.903448,10807.006753,-65577.774629
261.507412,-28571.949361,-2368.659014,-61594.078039
261.509974,-33901.432144,-5181.441594,-68948.594820
261.512537,15692.365970,4885.359217,-67263.184724
261.515100,67062.658345,9178.553681,-64505.240932
261.517662,3256.906145,2220.617826,-68642.156621
261.520225,-25315.043216,1332.370696,-64505.240932
261.522788,296.082377,-2664.741391,-63279.488135
261.525351,44116.274143,9918.759623,-64198.802732
261.527913,3256.906145,3701.029710,-70634.004916
261.530476,-24278.754898,-13027.624579,-65424.555529
261.533039,18061.024985,10362.883188,-67722.842023
261.535601,47817.303853,3108.864956,-58376.476948
261.538164,-12139.377449,-8586.388927,-74770.920605
261.540727,-5181.441594,-4589.276840,-67109.965625
261.543290,24722.878463,4885.359217,-57150.724151
261.545852,-2368.659014,-5477.523971,-75077.358804
261.548415,25759.166782,444.123565,-64352.021832
261.550978,30348.443622,4885.359217,-61594.078039
261.553540,-3849.070898,-3552.988522,-68335.718422
261.556103,-35085.761651,296.082377,-73698.386908
261.558666,12435.459826,4145.153275,-59142.572446
261.561229,19985.560434,11103.089130,-68488.937521
261.563791,51518.333563,15840.407159,-64045.583633
261.566354,-37454.420665,-296.082377,-72319.415011
261.568917,-32865.143825,-6365.771101,-58682.915147
261.571479,10807.006753,8438.347739,-70174.347617
261.574042,52554.621882,6069.688724,-69408.252119
261.576605,21317.931130,2072.576638,-69255.033019
261.579168,-7105.977043,-592.164754,-56078.190454
261.581730,-76685.335591,-11843.295072,-71553.319513
261.584293,6661.853478,444.123565,-72625.853210
261.586856,52110.498317,10955.047942,-62973.049936
261.589418,14804.118840,2812.782580,-64198.802732
261.591981,-51370.292375,-4737.318029,-69255.033019
261.594544,-17172.777854,-8438.347739,-69867.909418
261.597107,43524.109390,9178.553681,-66497.089226
261.599669,2812.782580,592.164754,-71246.881314
261.602232,-4737.318029,4293.194464,-60981.201641
261.604798,2960.823768,6809.894666,-66190.651027
261.607364,15396.283594,6217.729913,-65730.993728
261.609931,1628.453072,3108.864956,-64352.021832
261.612497,-34345.555709,-11251.130318,-75383.797003
261.615063,15396.283594,12287.418637,-60827.982541
261.617629,17764.942608,2516.700203,-65884.212828
261.620196,-5033.400406,1924.535449,-68488.937521
261.622762,-9030.512492,-5329.482782,-68335.718422
261.625328,-9030.512492,888.247130,-65424.555529
261.627894,2664.741391,2368.659014,-66037.431928
261.630461,22058.137072,2516.700203,-70174.347617
261.633027,15988.448347,3701.029710,-67109.965625
261.635593,-9474.636058,-5033.400406,-63126.269035
261.638159,-27535.661042,-296.082377,-64811.679131
261.640726,21910.095883,888.247130,-69867.909418
261.643292,52702.663070,7254.018232,-74617.701505
261.645858,20429.683999,-1924.535449,-55618.533155
261.648424,-59068.434172,-296.082377,-67263.184724
261.650991,-24426.796086,15544.324782,-69561.471218
261.653557,48113.386230,15988.448347,-68488.937521
261.656123,62029.257940,10214.842000,-68948.594820
261.658689,4885.359217,8438.347739,-59142.572446
261.661256,-53590.910201,-14211.954086,-69714.690318
261.663822,4293.194464,5181.441594,-68029.280222
261.666388,62177.299128,12287.418637,-66803.527426
261.668954,13915.871710,7254.018232,-67569.622924
261.671521,-22354.219448,5921.647536,-61594.078039
261.674087,1628.453072,12879.583391,-64045.583633
261.676653,15544.324782,4441.235652,-70940.443115
261.679219,22650.301825,-2220.617826,-69867.909418
261.681786,-15396.283594,-1628.453072,-65730.993728
261.684352,-15396.283594,-2664.741391,-67416.403824
261.686918,31384.731941,8734.430116,-65884.212828
261.689484,31828.855506,6069.688724,-63279.488135
261.692051,-2960.823768,-444.123565,-65424.555529
261.694617,-1776.494261,-4737.318029,-65424.555529
261.697183,8734.430116,2812.782580,-70634.004916
261.699749,38046.585419,7105.977043,-61900.516238
261.702315,29312.155303,10955.047942,-66190.651027
261.704882,-38934.832549,-3108.864956,-72012.976812
261.707451,-7105.977043,740.205942,-59755.448844
261.710020,16580.613101,10807.006753,-65118.117330
261.712589,21021.848753,592.164754,-72166.195912
261.715158,56403.692780,15988.448347,-60674.763442
261.717728,-84827.600953,-19837.519246,-68795.375720
261.720297,-13767.830521,296.082377,-67569.622924
261.722866,50185.962868,8586.388927,-72012.976812
261.725435,47669.262665,5181.441594,-67109.965625
261.728004,-888.247130,8586.388927,-64045.583633
261.730574,-68839.152606,-6069.688724,-66190.651027
261.733143,-15988.448347,-5477.523971,-64505.240932
261.735712,29164.114115,5625.565159,-70787.224015
261.738281,33901.432144,2812.782580,-71093.662214
261.740850,-8438.347739,740.205942,-64505.240932
261.743419,-40859.367998,-2516.700203,-66190.651027
261.745989,7846.182985,7994.224174,-74158.044206
261.748558,52702.663070,16728.654289,-59908.667944
261.751127,-16136.489536,2516.700203,-66650.308326
261.753696,-29460.196492,-2516.700203,-71400.100414
261.756265,16284.530724,5921.647536,-64658.460031
261.758834,23834.631332,10362.883188,-63279.488135
261.761404,-7994.224174,-592.164754,-65118.117330
261.763973,-23686.590144,-2220.617826,-68948.594820
261.766542,5181.441594,-148.041188,-68029.280222
261.769111,20133.601622,6365.771101,-64658.460031
261.771680,-4441.235652,-3701.029710,-66037.431928
261.774250,-27683.702231,-6217.729913,-68948.594820
261.776819,11695.253884,3552.988522,-65118.117330
261.779388,32717.102636,6217.729913,-68182.499322
261.781957,6661.853478,148.041188,-68029.280222
261.784526,-12139.377449,-3108.864956,-59755.448844
261.787095,-47521.221476,-1628.453072,-69255.033019
261.789665,26795.455100,296.082377,-69867.909418
261.792234,57736.063476,10362.883188,-73698.386908
261.794803,22650.301825,3849.070898,-55158.875856
261.797372,-63361.628635,1184.329507,-69408.252119
261.799941,-13767.830521,3701.029710,-70327.566716
261.802510,76537.294403,13915.871710,-64811.679131
261.805080,51222.251186,11547.212695,-65884.212828
261.807649,-21910.095883,8290.306550,-62053.735338
261.810219,-47521.221476,-7254.018232,-68948.594820
261.812789,20429.683999,4293.194464,-62819.830836
261.815359,56107.610404,14508.036463,-68182.499322
261.817930,9622.677246,4145.153275,-68642.156621
261.820500,-25463.084405,0.000000,-63432.707234
261.823070,5181.441594,11251.130318,-63432.707234
261.825640,40267.203245,7254.018232,-64658.460031
261.828211,10807.006753,-7550.100608,-67876.061123
261.830781,-18357.107362,-3701.029710,-65730.993728
261.833351,-5921.647536,-4737.318029,-70021.128517
261.835921,43079.985824,10510.924376,-63279.488135
261.838491,17468.860231,5329.482782,-66190.651027
261.841062,-8734.430116,-1776.494261,-66650.308326
261.843632,3997.112087,1628.453072,-63279.488135
261.846202,19097.313304,2664.741391,-69561.471218
261.848772,45448.644839,17912.983796,-62206.954438
261.851343,-8734.430116,13619.789333,-66956.746525
261.853913,-22798.343014,296.082377,-62819.830836
261.856483,1332.370696,-6069.688724,-66650.308326
261.859053,31976.896694,444.123565,-72779.072310
261.861623,55811.528027,30496.484810,-60827.982541
261.864194,-64101.834577,-14508.036463,-69561.471218
261.866764,-25611.125593,-16136.489536,-56384.628653
261.869334,10362.883188,10066.800811,-79214.274493
261.871904,70911.729244,10658.965565,-66037.431928
261.874474,22354.219448,3701.029710,-66497.089226
261.877045,-40563.285622,-8290.306550,-59908.667944
261.879615,-24870.919651,-6661.853478,-64352.021832
261.882185,19541.436869,5181.441594,-72319.415011
261.884755,54479.157331,7698.141797,-64658.460031
261.887326,-9622.677246,-6365.771101,-67722.842023
261.889896,-28275.866984,740.205942,-57763.600549
261.892466,-5329.482782,2664.741391,-68335.718422
261.895036,49593.798114,5773.606348,-67722.842023
261.897606,-3404.947333,-6217.729913,-67876.061123
261.900177,-17616.901420,-444.123565,-62666.611736
261.902747,9178.553681,13027.624579,-62666.611736
261.905317,41303.491564,10066.800811,-54852.437657
261.907887,-30348.443622,-2220.617826,-74311.263306
261.910457,-32272.979071,-11251.130318,-70940.443115
261.913029,21910.095883,6661.853478,-59755.448844
261.915600,21465.972318,13027.624579,-66037.431928
261.918171,-18357.107362,-6661.853478,-71093.662214
261.920742,-6069.688724,-4589.276840,-62666.611736
261.923314,10214.842000,3404.947333,-67876.061123
261.925885,31384.731941,8734.430116,-66190.651027
261.928456,10362.883188,-6365.771101,-66803.527426
261.931027,-31384.731941,740.205942,-66190.651027
261.933599,-39082.873738,-10066.800811,-73545.167808
261.936170,99483.678605,16136.489536,-57457.162350
261.938741,38342.667796,13175.665768,-68335.718422
261.941312,-29164.114115,-14063.912898,-61440.858940
261.943884,-43376.068201,-3997.112087,-65271.336430
261.946455,15692.365970,7550.100608,-62513.392637
261.949026,58328.228230,5773.606348,-73391.948708
261.951597,27831.743419,5033.400406,-69561.471218
261.954169,-13767.830521,7254.018232,-56844.285952
261.956740,-43079.985824,-1924.535449,-70021.128517
261.959311,39675.038491,4737.318029,-65118.117330
261.961882,48557.509795,8734.430116,-67109.965625
261.964454,5181.441594,8438.347739,-58989.353346
261.967025,-24130.713709,-2812.782580,-66803.527426
261.969596,5477.523971,-2220.617826,-71859.757712
261.972167,21910.095883,2072.576638,-67109.965625
261.974739,5181.441594,1480.411884,-63892.364533
261.977310,15248.242405,11251.130318,-62053.735338
261.979881,16728.654289,8438.347739,-66650.308326
261.982452,-2664.741391,148.041188,-72012.976812
261.985024,10510.924376,4293.194464,-65118.117330
261.987595,13471.748144,1776.494261,-61900.516238
261.990166,20281.642811,14804.118840,-65271.336430
261.992737,29904.320057,6661.853478,-68488.937521
261.995309,-2812.782580,10955.047942,-66497.089226
261.997880,-21465.972318,-5329.482782,-62666.611736
262.000451,3256.906145,5181.441594,-62360.173537
262.003022,20873.807564,-444.123565,-72932.291410
262.005594,53146.786636,19393.395680,-66497.089226
262.008165,-45300.603650,0.000000,-68948.594820
262.010736,-36862.255912,-8290.306550,-55924.971354
262.013307,10066.800811,2368.659014,-70174.347617
262.015880,58920.392983,10658.965565,-68488.937521
262.018452,9474.636058,10214.842000,-67722.842023
262.021024,-43968.232955,-4885.359217,-61287.639840
262.023597,-45596.686027,-7846.182985,-64505.240932
262.026169,14359.995275,6513.812290,-72319.415011
262.028741,58920.392983,8290.306550,-66037.431928
262.031313,-2812.782580,592.164754,-66190.651027
262.033886,-33605.349767,4737.318029,-61594.078039
262.036458,-18505.148550,-888.247130,-68642.156621
262.039030,60844.928432,6957.935855,-62053.735338
262.041602,-11695.253884,-4737.318029,-68642.156621
262.044175,-35825.967593,-11399.171507,-69255.033019
262.046747,9178.553681,2220.617826,-67569.622924
262.049319,35085.761651,10658.965565,-62513.392637
262.051891,-5625.565159,-1332.370696,-66190.651027
262.054464,-35085.761651,-6957.935855,-71400.100414
262.057036,6217.729913,4885.359217,-65118.117330
262.059608,26795.455100,6365.771101,-62513.392637
262.062180,-28571.949361,-5329.482782,-73085.510509
262.064753,1184.329507,-3256.906145,-65424.555529
262.067325,31828.855506,7550.100608,-64658.460031
262.069897,7402.059420,9622.677246,-69714.690318
262.072469,-7994.224174,592.164754,-61440.858940
262.075042,-38342.667796,-6957.935855,-66497.089226
262.077614,11547.212695,-2368.659014,-72472.634111
262.080186,66914.617157,15988.448347,-68488.937521
262.082759,19985.560434,1036.288319,-59295.791545
262.085331,-61141.010809,7105.977043,-70480.785816
262.087903,-18801.230927,-2072.576638,-63739.145434
262.090475,37898.544230,-1332.370696,-67263.184724
262.093048,79646.159359,18357.107362,-66343.870127
262.095620,-148.041188,296.082377,-57457.162350
262.098143,-55515.445650,-11547.212695,-70787.224015
262.100667,6069.688724,6513.812290,-64964.898230
262.103190,56699.775157,9474.636058,-65424.555529
262.105713,23390.507767,3997.112087,-69101.813920
262.108237,-34493.596897,-9474.636058,-68335.718422
262.110760,-5773.606348,2368.659014,-66343.870127
262.113283,38934.832549,11103.089130,-63739.145434
262.115807,14508.036463,592.164754,-66497.089226
262.118330,11695.253884,4589.276840,-58836.134246
262.120853,23686.590144,4441.235652,-61747.297139
262.123377,9326.594869,-3849.070898,-69101.813920
262.125900,2368.659014,-7105.977043,-69408.252119
262.128424,12139.377449,1332.370696,-63279.488135
262.130947,1628.453072,6809.894666,-67416.403824
262.133470,39675.038491,7550.100608,-65730.993728
262.135994,13323.706956,6809.894666,-63279.488135
262.138517,-36418.132346,-3108.864956,-69561.471218
262.141040,11251.130318,5773.606348,-60368.325242
262.143564,20725.766376,7402.059420,-71706.538613
262.146087,54479.157331,23982.672521,-63432.707234
262.148611,-72392.141128,-12287.418637,-70940.443115
262.151134,-23834.631332,-9030.512492,-60981.201641
262.153657,25611.125593,14211.954086,-73851.606007
262.156181,60104.722490,5181.441594,-67722.842023
262.158704,12287.418637,6513.812290,-67722.842023
262.161227,-40415.244433,-6661.853478,-62513.392637
262.163751,-41895.656317,-6217.729913,-66037.431928
262.166274,6957.935855,7402.059420,-71706.538613
262.168797,58772.351795,6957.935855,-65730.993728
262.171321,592.164754,-3849.070898,-66497.089226
262.173844,-34789.679274,148.041188,-65577.774629
262.176368,-3552.988522,-2072.576638,-70787.224015
262.178891,41747.615129,10658.965565,-66343.870127
262.181414,13027.624579,-148.041188,-61747.297139
262.183938,-39378.956114,-1036.288319,-67722.842023
262.186461,9178.553681,-6513.812290,-68948.594820
262.188984,11695.253884,2368.659014,-68335.718422
262.191508,8142.265362,5033.400406,-62206.954438
262.194031,-10658.965565,-4737.318029,-64964.898230
262.196554,-9030.512492,-2072.576638,-69561.471218
262.199089,-13027.624579,1184.329507,-69867.909418
262.201623,2812.782580,-3849.070898,-63279.488135
262.204157,17616.901420,888.247130,-71093.662214
262.206692,24426.796086,6365.771101,-64352.021832
262.209226,-888.247130,-5625.565159,-62819.830836
262.211761,-32124.937883,0.000000,-64811.679131
262.214295,-14804.118840,-5773.606348,-70021.128517
262.216829,79794.200548,13915.871710,-65884.212828
262.219364,26351.331535,1480.411884,-67416.403824
262.221898,-24870.919651,-8586.388927,-59755.448844
262.224433,-28127.825796,-7402.059420,-61594.078039
262.226967,41155.450375,296.082377,-61747.297139
262.229501,44116.274143,2664.741391,-76609.549800
262.232036,27387.619854,6957.935855,-62819.830836
262.234570,-37158.338288,-3997.112087,-63432.707234
262.237105,-23686.590144,-4293.194464,-64964.898230
262.239639,45892.768404,8586.388927,-64811.679131
262.242173,28423.908173,740.205942,-72472.634111
262.244708,-16432.571912,3552.988522,-68488.937521
262.247242,-11103.089130,9770.718434,-60521.544342
262.249777,22354.219448,4293.194464,-64045.583633
262.252311,25018.960840,1480.411884,-68335.718422
262.254845,7698.141797,6809.894666,-60827.982541
262.257380,-13767.830521,1332.370696,-70021.128517
262.259914,2072.576638,-444.123565,-72779.072310
262.262449,25167.002028,5477.523971,-63739.145434
262.264983,16728.654289,7105.977043,-61747.297139
262.267517,-9326.594869,-7846.182985,-71859.757712
262.270052,39823.079680,3997.112087,-63585.926334
262.272586,-296.082377,5181.441594,-66650.308326
262.275121,-20725.766376,-3701.029710,-66343.870127
262.277655,19689.478057,4145.153275,-58836.134246
262.280189,42487.821071,-2664.741391,-69561.471218
262.282724,20429.683999,2664.741391,-65577.774629
262.285258,-68543.070229,-16728.654289,-67722.842023
262.287793,-10362.883188,-2220.617826,-62973.049936
262.290327,26647.413912,7698.141797,-73085.510509
262.292861,54627.198520,4885.359217,-66956.746525
262.295396,13471.748144,12731.542202,-64045.583633
262.297930,-55367.404462,-8438.347739,-66037.431928
262.300465,-32272.979071,-6809.894666,-65884.212828
262.302999,12731.542202,5773.606348,-71706.538613
262.305533,30496.484810,2812.782580,-69867.909418
262.308068,-8734.430116,2072.576638,-63892.364533
262.310602,-35085.761651,-8290.306550,-65424.555529
262.313137,12731.542202,11399.171507,-66343.870127
262.315671,16876.695478,-740.205942,-75843.454302
262.318206,-2220.617826,-2072.576638,-62973.049936
262.320750,-18801.230927,2220.617826,-62819.830836
262.323294,9770.718434,5477.523971,-68182.499322
262.325839,6365.771101,1480.411884,-68488.937521
262.328383,-10066.800811,3256.906145,-69408.252119
262.330928,-2368.659014,4293.194464,-61900.516238
262.333472,4885.359217,6069.688724,-64198.802732
262.336017,-8734.430116,-3849.070898,-69408.252119
262.338561,18505.148550,2220.617826,-67416.403824
262.341106,34493.596897,6957.935855,-66343.870127
262.343650,1184.329507,-4293.194464,-61747.297139
262.346195,-38194.626607,148.041188,-68795.375720
262.348739,-29904.320057,-7550.100608,-68488.937521
262.351283,80090.282924,1776.494261,-61134.420740
262.353828,21465.972318,1480.411884,-78448.178995
262.356372,1480.411884,8142.265362,-52860.589362
262.358917,-63953.793389,-12879.583391,-66650.308326
262.361461,8290.306550,-3701.029710,-66190.651027
262.364006,66766.575968,17912.983796,-71706.538613
262.366550,40415.244433,-4737.318029,-64352.021832
262.369095,-17912.983796,-296.082377,-60368.325242
262.371639,-42339.779882,-5477.523971,-69101.813920
262.374184,25759.166782,7698.141797,-64045.583633
262.376728,40859.367998,11251.130318,-71246.881314
262.379273,3108.864956,-3108.864956,-68642.156621
262.381817,-17172.777854,-740.205942,-59295.791545
262.384361,4589.276840,11251.130318,-65271.336430
262.386906,35381.844028,6217.729913,-67109.965625
262.389450,17320.819043,3552.988522,-60674.763442
262.391995,-20429.683999,-2664.741391,-69255.033019
262.394539,-7254.018232,1776.494261,-72166.195912
262.397084,39823.079680,9030.512492,-60674.763442
262.399628,26795.455100,6513.812290,-62513.392637
262.402178,-13027.624579,3849.070898,-70787.224015
262.404729,18357.107362,-4145.153275,-68182.499322
262.407279,17764.942608,7846.182985,-60061.887043
262.409829,-21317.931130,-6661.853478,-64658.460031
262.412379,7994.224174,2220.617826,-72625.853210
262.414930,61141.010809,5181.441594,-62053.735338
262.417480,15396.283594,6069.688724,-62053.735338
262.420030,-69579.358548,-16876.695478,-66803.527426
262.422580,-19837.519246,-888.247130,-68029.280222
262.425131,49297.715737,9918.759623,-67722.842023
262.427681,49741.839302,8734.430116,-66343.870127
262.430231,-5477.523971,9622.677246,-67263.184724
262.432781,-46929.056723,-8882.471304,-62053.735338
262.435332,-22502.260637,-2368.659014,-64964.898230
262.437882,13619.789333,7105.977043,-73238.729609
262.440432,22946.384202,-592.164754,-71400.100414
262.442982,-9030.512492,3997.112087,-61134.420740
262.445533,-49445.756926,-15692.365970,-72012.976812
262.448083,32124.937883,10214.842000,-62819.830836
262.450633,45300.603650,9178.553681,-63432.707234
262.453183,-22946.384202,4885.359217,-68642.156621
262.455734,-35825.967593,-3997.112087,-70480.785816
262.458284,21169.889941,4885.359217,-65271.336430
262.460834,33901.432144,11399.171507,-59755.448844
262.463384,-22354.219448,-1036.288319,-74004.825107
262.465935,-35974.008781,-8882.471304,-68948.594820
262.468485,-2664.741391,148.041188,-66956.746525
262.471035,13323.706956,4145.153275,-66037.431928
262.473585,34937.720462,3997.112087,-68182.499322
262.476136,8142.265362,740.205942,-68488.937521
262.478686,-28127.825796,-1628.453072,-59908.667944
262.481236,-35381.844028,1628.453072,-67876.061123
262.483786,16876.695478,444.123565,-71246.881314
262.486336,84975.642142,19837.519246,-68335.718422
262.488887,4737.318029,2072.576638,-62360.173537
262.491437,-56995.857534,-148.041188,-72166.195912
262.493987,-5477.523971,6217.729913,-64352.021832
262.496537,52850.704259,12583.501014,-67569.622924
262.499088,72688.223504,15100.201217,-68029.280222
262.501638,-6513.812290,-1776.494261,-60981.201641
262.504194,-47077.097911,-2516.700203,-67569.622924
262.506750,8586.388927,1776.494261,-63432.707234
262.509306,42487.821071,4885.359217,-70327.566716
262.511861,30052.361245,5625.565159,-68642.156621
262.514417,-22206.178260,-5477.523971,-57150.724151
262.516973,-3552.988522,-4737.318029,-67722.842023
262.519529,15692.365970,-6513.812290,-76456.330700
262.522085,8142.265362,-2960.823768,-67109.965625
262.524641,4885.359217,-2220.617826,-60674.763442
262.527197,9474.636058,3552.988522,-65884.212828
262.529753,15100.201217,3108.864956,-69101.813920
262.532308,16728.654289,8882.471304,-66190.651027
262.534864,12731.542202,5033.400406,-65118.117330
262.537420,27239.578666,-4441.235652,-62666.611736
262.539976,-33013.185013,-5921.647536,-73851.606007
262.542532,-23686.590144,-6365.771101,-66190.651027
262.545088,52110.498317,10658.965565,-62360.173537
262.547644,45744.727216,1184.329507,-68029.280222
262.550200,-8882.471304,2960.823768,-64505.240932
262.552755,-51962.457128,-14359.995275,-61594.078039
262.555311,-14211.954086,1628.453072,-72779.072310
262.557867,62917.505070,10955.047942,-66650.308326
262.560423,34345.555709,2664.741391,-69101.813920
262.562979,-2072.576638,5329.482782,-64352.021832
262.565535,-72244.099939,-11399.171507,-68795.375720
262.568091,-12583.501014,-1924.535449,-64505.240932
262.570647,32421.020260,7254.018232,-69408.252119
262.573202,13767.830521,-7846.182985,-69714.690318
262.575758,-19097.313304,-740.205942,-63585.926334
262.578314,-24870.919651,-1776.494261,-64811.679131
262.580870,8142.265362,7994.224174,-74311.263306
262.583426,40563.285622,11103.089130,-64811.679131
262.585982,-11547.212695,-1776.494261,-57457.162350
262.588538,-29904.320057,-3404.947333,-71400.100414
262.591094,-9178.553681,-9918.759623,-75077.358804
262.593649,38342.667796,6365.771101,-58529.696047
262.596205,10807.006753,6957.935855,-64198.802732
262.598761,-40267.203245,-6809.894666,-64811.679131
262.601317,-22354.219448,-1628.453072,-72779.072310
262.603873,30052.361245,1924.535449,-67876.061123
262.606432,39082.873738,12139.377449,-68335.718422
262.608992,3404.947333,-10510.924376,-58836.134246
262.611551,-66322.452403,-9474.636058,-70940.443115
262.614111,-18505.148550,-8142.265362,-68029.280222
262.616670,96818.937214,13175.665768,-60827.982541
262.619229,36418.132346,5625.565159,-74464.482406
262.621789,-19393.395680,-5033.400406,-51788.055665
262.624348,-71059.770432,-14508.036463,-72932.291410
262.626907,22058.137072,5625.565159,-66497.089226
262.629467,65730.287650,15840.407159,-74924.139704
262.632026,35677.926404,148.041188,-62666.611736
262.634586,-30496.484810,-6069.688724,-56844.285952
262.637145,-46484.933158,-12287.418637,-74158.044206
262.639704,43376.068201,8290.306550,-65118.117330
262.642264,55959.569215,2220.617826,-68948.594820
262.644823,-1628.453072,3404.947333,-60061.887043
262.647382,-32865.143825,-740.205942,-66803.527426
262.649942,24130.713709,4293.194464,-71553.319513
262.652501,23982.672521,4145.153275,-66956.746525
262.655061,-7402.059420,-3404.947333,-62053.735338
262.657620,-1480.411884,-7550.100608,-65118.117330
262.660179,14804.118840,1776.494261,-69255.033019
262.662739,30348.443622,6365.771101,-65730.993728
262.665298,9178.553681,-444.123565,-67722.842023
262.667858,38342.667796,-1924.535449,-58529.696047
262.670417,-40859.367998,-7254.018232,-72779.072310
262.672976,-27091.537477,-16284.530724,-67569.622924
262.675536,41747.615129,10362.883188,-64964.898230
262.678095,41155.450375,-12435.459826,-68029.280222
262.680654,9030.512492,-3997.112087,-57916.819649
262.683214,-90749.248489,-23390.507767,-70174.347617
262.685773,5181.441594,5329.482782,-65730.993728
262.688333,55959.569215,3701.029710,-72472.634111
262.690892,40267.203245,1776.494261,-64964.898230
262.693451,-9474.636058,7254.018232,-65730.993728
262.696011,-70171.523302,-8882.471304,-67722.842023
262.698570,-9770.718434,-2664.741391,-61900.516238
262.701130,31680.814318,6957.935855,-74770.920605
262.703689,26647.413912,-2072.576638,-69867.909418
262.706248,-5773.606348,6809.894666,-63279.488135
262.708811,-12731.542202,4589.276840,-61287.639840
262.711373,26499.372724,1184.329507,-68642.156621
262.713936,22946.384202,-4145.153275,-69867.909418
262.716498,-22502.260637,-888.247130,-62819.830836
262.719061,-7698.141797,-740.205942,-60368.325242
262.721623,-3849.070898,4145.153275,-73391.948708
262.724185,17912.983796,2664.741391,-69561.471218
262.726748,8438.347739,-5181.441594,-60981.201641
262.729310,-34049.473332,-2516.700203,-66803.527426
262.731873,-27239.578666,-3256.906145,-74311.263306
262.734435,61437.093186,10066.800811,-61287.639840
262.736998,23094.425390,4589.276840,-72472.634111
262.739560,-25611.125593,-2516.700203,-59908.667944
262.742123,-43672.150578,-1184.329507,-64658.460031
262.744685,-5181.441594,296.082377,-77375.645298
262.747247,104072.955445,25611.125593,-64811.679131
262.749810,29312.155303,592.164754,-61134.420740
262.752372,-74020.594200,-7105.977043,-66497.089226
262.754935,-27091.537477,-1332.370696,-62513.392637
262.757497,33457.308578,-3256.906145,-65577.774629
262.760060,82755.024316,-296.082377,-70940.443115
262.762622,5921.647536,-1184.329507,-58682.915147
262.765185,-71207.811620,-8734.430116,-70634.004916
262.767747,8882.471304,-7550.100608,-62513.392637
262.770309,45744.727216,10066.800811,-69867.909418
262.772872,39971.120868,2664.741391,-66650.308326
262.775434,-26055.249158,-3997.112087,-57150.724151
262.777997,-24870.919651,-6069.688724,-71706.538613
262.780559,49297.715737,8882.471304,-69714.690318
262.783122,18209.066173,-5329.482782,-66650.308326
262.785684,-2072.576638,3849.070898,-60674.763442
262.788247,1480.411884,2072.576638,-64505.240932
262.790809,32865.143825,7994.224174,-66037.431928
262.793371,16284.530724,-3256.906145,-72166.195912
262.795934,25018.960840,-8882.471304,-63892.364533
262.798496,-10066.800811,296.082377,-62053.735338
262.801059,-51518.333563,-11547.212695,-70174.347617
262.803621,33753.390955,3404.947333,-65577.774629
262.806184,59068.434172,4589.276840,-67722.842023
262.808746,26943.496289,8734.430116,-63585.926334
262.811311,-89268.836605,-14952.160028,-68488.937521
262.813876,3256.906145,-592.164754,-63126.269035
262.816441,58328.228230,16580.613101,-73391.948708
262.819006,45004.521274,5625.565159,-67263.184724
262.821570,-5477.523971,10214.842000,-64045.583633
262.824135,-68691.111418,-7994.224174,-63432.707234
262.826700,-31384.731941,-2220.617826,-66803.527426
262.829265,43968.232955,8438.347739,-73238.729609
262.831830,35381.844028,-2220.617826,-66803.527426
262.834395,-9622.677246,-1628.453072,-62053.735338
262.836960,-62621.422693,-2220.617826,-72166.195912
262.839525,50185.962868,11695.253884,-59142.572446
262.842089,64101.834577,12139.377449,-61134.420740
262.844654,-54627.198520,1924.535449,-71246.881314
262.847219,-23686.590144,-7105.977043,-63279.488135
262.849784,6809.894666,-148.041188,-68948.594820
262.852349,39378.956114,11991.336260,-64198.802732
262.854914,-9474.636058,-4293.194464,-67416.403824
262.857479,-33013.185013,-11399.171507,-63126.269035
262.860043,-18357.107362,-2220.617826,-71400.100414
262.862608,47669.262665,10510.924376,-65118.117330
262.865173,40563.285622,10214.842000,-69408.252119
262.867738,-34641.638086,-19097.313304,-58070.038748
262.870303,-68987.193794,-13471.748144,-74158.044206
262.872868,59512.557737,5033.400406,-63739.145434
262.875433,81126.571243,14804.118840,-69867.909418
262.877998,10362.883188,3108.864956,-59449.010645
262.880562,-83347.189069,-17764.942608,-64658.460031
262.883127,-33605.349767,8882.471304,-72012.976812
262.885692,49741.839302,10658.965565,-69867.909418
262.888257,122874.186372,3108.864956,-60215.106143
262.890822,-14508.036463,1332.370696,-67569.622924
262.893387,-67802.864287,-8438.347739,-68182.499322
262.895952,20281.642811,-3108.864956,-66497.089226
262.898517,63065.546258,13027.624579,-66190.651027
262.901081,14656.077652,2368.659014,-71093.662214
262.903646,-49593.798114,-2516.700203,-61287.639840
262.906211,5181.441594,296.082377,-67876.061123
262.908776,75501.006084,5477.523971,-62666.611736
262.911341,3849.070898,2072.576638,-68335.718422
262.913907,-25611.125593,-10807.006753,-70174.347617
262.916473,-148.041188,2516.700203,-61594.078039
262.919039,26795.455100,296.082377,-71553.319513
262.921604,25759.166782,5477.523971,-69867.909418
262.924170,9918.759623,2812.782580,-61287.639840
262.926736,-58920.392983,-11843.295072,-66037.431928
262.929302,6513.812290,5181.441594,-62053.735338
262.931868,47373.180288,5773.606348,-76915.987999
262.934434,58032.145853,19393.395680,-63126.269035
262.937000,-53294.827824,3404.947333,-67722.842023
262.939566,-70023.482113,-12287.418637,-61287.639840
262.942132,13027.624579,5773.606348,-77222.426198
262.944697,88528.630663,10510.924376,-68182.499322
262.947263,32865.143825,-1184.329507,-62513.392637
262.949829,-63953.793389,-8586.388927,-65118.117330
262.952395,-55071.322085,-1480.411884,-63279.488135
262.954961,24278.754898,2960.823768,-75077.358804
262.957527,67358.740722,13471.748144,-65424.555529
262.960093,-6513.812290,-4737.318029,-66037.431928
262.962659,-55367.404462,-7254.018232,-71246.881314
262.965225,25315.043216,15988.448347,-57303.943250
262.967791,39823.079680,-5181.441594,-70021.128517
262.970356,-5773.606348,-9918.759623,-66956.746525
262.972922,-32865.143825,6957.935855,-66037.431928
262.975488,5773.606348,1776.494261,-65424.555529
262.978054,25167.002028,1924.535449,-68182.499322
262.980620,5477.523971,4589.276840,-66343.870127
262.983186,-34049.473332,-14656.077652,-65577.774629
262.985752,-13619.789333,444.123565,-70174.347617
262.988318,36122.049970,9326.594869,-65884.212828
262.990884,27831.743419,5329.482782,-72625.853210
262.993449,-17320.819043,-10807.006753,-60981.201641
262.996015,-66470.493592,-14952.160028,-70174.347617
262.998581,24130.713709,2368.659014,-70174.347617
263.001147,88528.630663,25759.166782,-66190.651027
263.003713,1184.329507,-13027.624579,-59142.572446
263.006279,-77425.541533,-14508.036463,-65730.993728
263.008845,-12583.501014,-3256.906145,-65730.993728
263.011411,35529.885216,9178.553681,-75843.454302
263.013977,102740.584750,19541.436869,-64505.240932
263.016544,-740.205942,4145.153275,-58682.915147
263.019111,-79646.159359,-9622.677246,-69867.909418
263.021677,13323.706956,3849.070898,-67876.061123
263.024244,52850.704259,12583.501014,-64198.802732
263.026811,43968.232955,8438.347739,-64811.679131
263.029378,-38046.585419,-5477.523971,-58836.134246
263.031945,-11991.336260,1184.329507,-77222.426198
263.034512,79053.994606,21021.848753,-60368.325242
263.037079,19985.560434,2664.741391,-63432.707234
263.039646,-36270.091158,-10214.842000,-73545.167808
263.042213,3997.112087,148.041188,-59295.791545
263.044780,38342.667796,-148.041188,-68488.937521
263.047347,50778.127621,8734.430116,-64352.021832
263.049914,-8734.430116,-740.205942,-69867.909418
263.052481,-59512.557737,-6513.812290,-63279.488135
263.055048,6957.935855,2368.659014,-62666.611736
263.057615,82458.941939,7550.100608,-68029.280222
263.060181,38046.585419,7254.018232,-55005.656756
263.062748,-110142.644170,-17468.860231,-74158.044206
263.065315,-41747.615129,3256.906145,-62206.954438
263.067882,73428.429446,10362.883188,-71400.100414
263.070449,68246.987852,11991.336260,-68948.594820
263.073016,-1184.329507,8734.430116,-63432.707234
263.075583,-77425.541533,-8882.471304,-62819.830836
263.078150,-51666.374752,3108.864956,-66190.651027
263.080717,60104.722490,8882.471304,-71246.881314
263.083284,16876.695478,6365.771101,-70021.128517
263.085851,-23538.548956,-9622.677246,-64352.021832
263.088418,-32124.937883,-888.247130,-62666.611736
263.090985,38638.750172,4737.318029,-66190.651027
263.093552,20873.807564,4737.318029,-73238.729609
263.096119,-25907.207970,2516.700203,-62819.830836
263.098685,-27979.784608,296.082377,-67109.965625
263.101252,11991.336260,9474.636058,-63585.926334
263.103819,33161.226202,6069.688724,-67569.622924
263.106386,-14063.912898,-1332.370696,-68642.156621
263.108953,-21910.095883,-5921.647536,-69867.909418
263.111520,24426.796086,10066.800811,-66650.308326
263.114087,38786.791361,10658.965565,-69101.813920
263.116654,-10658.965565,4885.359217,-66190.651027
263.119222,-37454.420665,-1776.494261,-60215.106143
263.121791,-7550.100608,-2812.782580,-72625.853210
263.124359,74760.800142,10362.883188,-70940.443115
263.126927,39823.079680,9326.594869,-62819.830836
263.129495,-53294.827824,-1776.494261,-60061.887043
263.132063,-50185.962868,7254.018232,-66497.089226
263.134632,34049.473332,7994.224174,-65577.774629
263.137200,112511.303184,16876.695478,-58989.353346
263.139768,-14359.995275,-2960.823768,-69561.471218
263.142336,-56995.857534,-14804.118840,-61134.420740
263.144905,11547.212695,-296.082377,-62973.049936
263.147473,41007.409187,10510.924376,-71246.881314
263.150041,14063.912898,4589.276840,-72625.853210
263.152609,-1332.370696,5033.400406,-54852.437657
263.155178,-14211.954086,1924.535449,-71400.100414
263.157746,41303.491564,2368.659014,-68029.280222
263.160314,21910.095883,5625.565159,-64811.679131
263.162882,-18061.024985,-2960.823768,-68488.937521
263.165450,-16876.695478,-4589.276840,-68642.156621
263.168019,44116.274143,26203.290347,-67416.403824
263.170587,48113.386230,4885.359217,-61287.639840
263.173155,-6513.812290,-1332.370696,-63585.926334
263.175723,-53886.992578,-11991.336260,-65884.212828
263.178292,2812.782580,3404.947333,-69561.471218
263.180860,78757.912229,8586.388927,-69101.813920
263.183428,31384.731941,2220.617826,-58682.915147
263.185996,-78461.829852,-26647.413912,-65424.555529
263.188565,-56699.775157,-148.041188,-66803.527426
263.191133,81570.694808,7846.182985,-71400.100414
263.193701,59216.475360,5921.647536,-64658.460031
263.196269,-12139.377449,4885.359217,-62513.392637
263.198837,-90305.124924,-15988.448347,-66497.089226
263.201406,-23538.548956,-6217.729913,-64352.021832
263.203974,70171.523302,13471.748144,-73851.606007
263.206542,29016.072926,3849.070898,-64045.583633
263.209110,-19837.519246,-3108.864956,-60521.544342
263.211679,-78609.871040,-8882.471304,-77682.083497
263.214247,70171.523302,13471.748144,-59602.229744
263.216815,31236.690752,3108.864956,-69561.471218
263.219383,-44856.480085,-5181.441594,-61287.639840
263.221951,-34937.720462,-6661.853478,-75077.358804
263.224519,35085.761651,6365.771101,-62360.173537
263.227087,16136.489536,1480.411884,-72625.853210
263.229655,-6513.812290,3256.906145,-57303.943250
263.232224,-39082.873738,-7698.141797,-74004.825107
263.234792,35677.926404,3404.947333,-64658.460031
263.237360,23242.466579,8142.265362,-69255.033019
263.239928,-2220.617826,-15840.407159,-60061.887043
263.242497,-36714.214723,-10955.047942,-66343.870127
263.245065,57143.898722,10066.800811,-72012.976812
263.247633,46632.974346,5329.482782,-70634.004916
263.250201,4293.194464,-11251.130318,-54086.342159
263.252770,-65582.246461,-8290.306550,-68029.280222
263.255338,-17468.860231,888.247130,-68642.156621
263.257906,76981.417968,11547.212695,-66650.308326
263.260474,57291.939911,12287.418637,-70021.128517
263.263042,-7254.018232,-4293.194464,-55771.752254
263.265611,-58624.310606,-11251.130318,-68029.280222
263.268179,21465.972318,2368.659014,-68642.156621
263.270747,58180.187041,9918.759623,-64505.240932
263.273315,-8438.347739,740.205942,-66650.308326
263.275884,-18949.272115,7254.018232,-59295.791545
263.278452,31828.855506,8290.306550,-68029.280222
263.281020,32569.061448,8882.471304,-68182.499322
263.283588,-740.205942,-3404.947333,-67876.061123
263.286157,-17616.901420,-3552.988522,-63739.145434
263.288725,26795.455100,13175.665768,-63126.269035
263.291293,33309.267390,888.247130,-71093.662214
263.293861,35677.926404,8586.388927,-58376.476948
263.296429,-63953.793389,-3701.029710,-74770.920605
263.298998,3256.906145,296.082377,-64045.583633
263.301566,62621.422693,17912.983796,-72932.291410
263.304134,48853.592172,6809.894666,-53626.684860
263.306702,-84531.518576,-27387.619854,-67722.842023
263.309271,-54923.280896,-4885.359217,-71400.100414
263.311839,56403.692780,16580.613101,-66650.308326
263.314407,67358.740722,14063.912898,-68948.594820
263.316975,8734.430116,11843.295072,-63585.926334
263.319544,-69431.317360,-9474.636058,-65730.993728
263.322112,-48261.427418,-1036.288319,-63892.364533
263.324680,61437.093186,10658.965565,-72319.415011
263.327249,20873.807564,-4293.194464,-70021.128517
263.329817,-25611.125593,-5181.441594,-66037.431928
263.332385,-9474.636058,1036.288319,-61747.297139
263.334954,14211.954086,-2368.659014,-67263.184724
263.337522,14063.912898,-6661.853478,-75690.235202
263.340090,-2220.617826,-2368.659014,-59755.448844
263.342659,-28275.866984,-3256.906145,-67569.622924
263.345227,-1036.288319,-1480.411884,-68488.937521
263.347796,17616.901420,1332.370696,-68335.718422
263.350364,2664.741391,296.082377,-62206.954438
263.352932,-3997.112087,-4441.235652,-67109.965625
263.355501,6513.812290,4885.359217,-71553.319513
263.358069,29164.114115,3701.029710,-59755.448844
263.360637,-33309.267390,2960.823768,-66650.308326
263.363206,-13027.624579,1480.411884,-66497.089226
263.365774,58328.228230,5329.482782,-71706.538613
263.368343,41599.573940,12139.377449,-64658.460031
263.370911,-24278.754898,-6069.688724,-59295.791545
263.373479,-51370.292375,-6661.853478,-69408.252119
263.376048,-2812.782580,-3108.864956,-69255.033019
263.378616,92081.619185,21169.889941,-64045.583633
263.381184,41895.656317,9474.636058,-60827.982541
263.383753,-63213.587447,-13915.871710,-69408.252119
263.386321,-3997.112087,-1480.411884,-61747.297139
263.388890,30200.402434,9030.512492,-68642.156621
263.391458,73576.470635,13471.748144,-58836.134246
263.394026,-37750.503042,-11251.130318,-69408.252119
263.396595,-24722.878463,-7254.018232,-63432.707234
263.399163,63213.587447,7254.018232,-64045.583633
263.401731,41599.573940,10066.800811,-62666.611736
263.404300,-9622.677246,-12139.377449,-66037.431928
263.406868,1036.288319,-3256.906145,-59908.667944
263.409437,9770.718434,5921.647536,-77835.302597
263.412005,42487.821071,14063.912898,-63585.926334
263.414573,1924.535449,-6513.812290,-58376.476948
263.417142,-50334.004056,-6809.894666,-70480.785816
263.419710,22650.301825,3701.029710,-68795.375720
263.422278,55515.445650,20725.766376,-72625.853210
263.424847,-1332.370696,-7698.141797,-59602.229744
263.427376,-66470.493592,-19245.354492,-63892.364533
263.429905,-27831.743419,2960.823768,-75996.673402
263.432434,72836.264693,6513.812290,-68642.156621
263.434963,34937.720462,-2664.741391,-64811.679131
263.437492,-32272.979071,-5329.482782,-62513.392637
263.440021,-83791.312634,-18653.189738,-66803.527426
263.442550,14508.036463,-296.082377,-67569.622924
263.445080,68395.029041,13767.830521,-70787.224015
263.447609,2812.782580,-2664.741391,-64352.021832
263.450138,-19985.560434,444.123565,-59295.791545
263.452667,-23834.631332,-2220.617826,-68948.594820
263.455196,42191.738694,1924.535449,-70021.128517
263.457725,-8734.430116,-1776.494261,-63432.707234
263.460254,-43820.191766,-5033.400406,-70480.785816
263.462783,5625.565159,4441.235652,-62819.830836
263.465312,17764.942608,-3701.029710,-68182.499322
263.467841,12435.459826,-296.082377,-67263.184724
263.470371,-20133.601622,-5773.606348,-66650.308326
263.472900,15544.324782,1924.535449,-67722.842023
263.475429,18505.148550,5625.565159,-61287.639840
263.477958,-14656.077652,1924.535449,-66803.527426
263.480487,-6809.894666,-4441.235652,-65884.212828
263.483016,30052.361245,12583.501014,-70787.224015
263.485545,4145.153275,3552.988522,-69408.252119
263.488074,-19393.395680,-10214.842000,-57150.724151
263.490603,-33161.226202,-14359.995275,-66343.870127
263.493132,4737.318029,9622.677246,-67109.965625
263.495661,62621.422693,25611.125593,-70787.224015
263.498191,39526.997303,11547.212695,-66190.651027
263.500720,-28127.825796,-4441.235652,-61440.858940
263.503249,-21910.095883,-7402.059420,-65424.555529
263.505778,7550.100608,10955.047942,-74464.482406
263.508307,34789.679274,-3108.864956,-70480.785816
263.510836,1332.370696,-8734.430116,-58223.257848
263.513365,0.000000,12879.583391,-64505.240932
263.515894,21762.054695,4589.276840,-68029.280222
263.518423,11251.130318,3701.029710,-71400.100414
263.520952,7105.977043,1480.411884,-64505.240932
263.523482,5181.441594,5773.606348,-60215.106143
263.526011,21762.054695,-2812.782580,-68182.499322
263.528548,19245.354492,7254.018232,-69561.471218
263.531085,-19985.560434,-4145.153275,-68795.375720
263.533623,3108.864956,-5033.400406,-57150.724151
263.536160,11843.295072,7105.977043,-73851.606007
263.538697,34049.473332,4293.194464,-66037.431928
263.541235,-47373.180288,-9918.759623,-64811.679131
263.543772,-35381.844028,-11695.253884,-64658.460031
263.546309,14359.995275,4145.153275,-72012.976812
263.548847,61141.010809,4441.235652,-70787.224015
263.551384,18653.189738,-5773.606348,-64045.583633
263.553921,-27683.702231,-8290.306550,-58682.915147
263.556459,-81866.777185,-10955.047942,-75077.358804
263.558996,35529.885216,10066.800811,-62360.173537
263.561533,46040.809592,10807.006753,-70634.004916
263.564071,9030.512492,3997.112087,-57763.600549
263.566608,-31532.773129,-740.205942,-66190.651027
263.569145,27091.537477,4293.194464,-68642.156621
263.571683,8586.388927,2960.823768,-70787.224015
263.574220,-9622.677246,-7402.059420,-58836.134246
263.576757,-37306.379477,-888.247130,-71553.319513
263.579295,13767.830521,6809.894666,-64658.460031
263.581832,13027.624579,-2368.659014,-70174.347617
263.584369,-6957.935855,2072.576638,-68795.375720
263.586907,10658.965565,2812.782580,-60061.887043
263.589444,-2220.617826,3108.864956,-71553.319513
263.591981,-5773.606348,2516.700203,-65577.774629
263.594519,-9770.718434,-3997.112087,-64352.021832
263.597056,18505.148550,3552.988522,-69561.471218
263.599593,44116.274143,8142.265362,-72012.976812
263.602131,23242.466579,3552.988522,-55465.314055
263.604668,-51518.333563,-13323.706956,-71093.662214
263.607205,-31828.855506,-13323.706956,-67416.403824
263.609749,54035.033766,-1036.288319,-58682.915147
263.612293,47521.221476,4885.359217,-77375.645298
263.614837,15248.242405,-3108.864956,-60061.887043
263.617381,-42191.738694,-13323.706956,-68182.499322
263.619924,7698.141797,9622.677246,-64198.802732
263.622468,42931.944636,11399.171507,-70174.347617
263.625012,8290.306550,-1184.329507,-70021.128517
263.627556,-28571.949361,-4293.194464,-58223.257848
263.630099,34789.679274,8734.430116,-61747.297139
263.632643,23834.631332,9326.594869,-73085.510509
263.635187,15396.283594,-9178.553681,-66497.089226
263.637731,4737.318029,-9326.594869,-60215.106143
263.640275,15840.407159,12583.501014,-63126.269035
263.642818,21910.095883,10362.883188,-69408.252119
263.645362,-31236.690752,-1480.411884,-76303.111601
263.647906,-1184.329507,-9326.594869,-60674.763442
263.650450,19985.560434,9622.677246,-64198.802732
263.652993,24278.754898,17764.942608,-74617.701505
263.655537,-14211.954086,-11991.336260,-64964.898230
263.658081,-27239.578666,-6957.935855,-57457.162350
263.660625,-10658.965565,6809.894666,-74770.920605
263.663169,51074.209998,2960.823768,-67263.184724
263.665712,33013.185013,3701.029710,-67569.622924
263.668256,-11547.212695,9474.636058,-62053.735338
263.670800,-48409.468607,-13027.624579,-63126.269035
263.673344,6661.853478,-888.247130,-71246.881314
263.675887,44412.356520,4145.153275,-70634.004916
263.678431,2516.700203,148.041188,-66956.746525
263.680975,-21762.054695,-296.082377,-63432.707234
263.683519,-1480.411884,-2960.823768,-62819.830836
263.686063,16284.530724,-1628.453072,-73238.729609
263.688606,14656.077652,2516.700203,-64352.021832
263.691150,-27979.784608,-6809.894666,-66037.431928
263.693694,-12287.418637,8142.265362,-67569.622924
263.696238,1184.329507,-1628.453072,-70327.566716
263.698782,9178.553681,1332.370696,-66956.746525
263.701325,7254.018232,1924.535449,-64045.583633
263.703869,-148.041188,1480.411884,-69255.033019
263.706413,-12139.377449,-1776.494261,-63585.926334
263.708957,-16728.654289,-6661.853478,-70634.004916
263.711506,34937.720462,-2664.741391,-69561.471218
263.714054,62473.381505,7105.977043,-64505.240932
263.716603,-6957.935855,1924.535449,-64352.021832
263.719152,-46929.056723,-148.041188,-65271.336430
263.721701,-5921.647536,0.000000,-64045.583633
263.724250,55219.363273,888.247130,-57457.162350
263.726799,38194.626607,2368.659014,-69714.690318
263.729348,-26943.496289,10955.047942,-65730.993728
263.731897,-10362.883188,1184.329507,-58989.353346
263.734446,3997.112087,-4885.359217,-73238.729609
263.736994,35974.008781,2960.823768,-66037.431928
263.739543,39230.914926,6661.853478,-57763.600549
263.742092,-30940.608376,2516.700203,-70021.128517
263.744641,17764.942608,2368.659014,-65424.555529
263.747190,24278.754898,-5477.523971,-68948.594820
263.749739,13027.624579,-296.082377,-63432.707234
263.752288,25759.166782,11991.336260,-57763.600549
263.754837,592.164754,13471.748144,-70940.443115
263.757386,1036.288319,3108.864956,-69714.690318
263.759934,15100.201217,4737.318029,-59142.572446
263.762483,-17468.860231,-1628.453072,-69101.813920
263.765032,34493.596897,-1776.494261,-68029.280222
263.767581,46336.891969,14952.160028,-60827.982541
263.770130,-60400.804867,-12139.377449,-67109.965625
263.772679,-38786.791361,-6365.771101,-70327.566716
263.775228,29312.155303,11399.171507,-68182.499322
263.777777,53294.827824,9622.677246,-66343.870127
263.780326,-5181.441594,6957.935855,-66803.527426
263.782875,-47965.345042,-5625.565159,-63126.269035
263.785423,-28868.031738,4885.359217,-66650.308326
263.787972,33161.226202,15396.283594,-70787.224015
263.790521,30940.608376,2220.617826,-68488.937521
263.793070,-21317.931130,-148.041188,-63432.707234
263.795619,-9030.512492,4145.153275,-64045.583633
263.798168,21465.972318,2072.576638,-68948.594820
263.800717,-12139.377449,4737.318029,-73545.167808
263.803266,2072.576638,-2220.617826,-59755.448844
263.805815,4145.153275,5329.482782,-61287.639840
263.808363,8290.306550,-2516.700203,-69867.909418
263.810912,5625.565159,-3849.070898,-68182.499322
263.813466,4145.153275,-1332.370696,-64505.240932
263.816019,444.123565,-1924.535449,-69561.471218
263.818573,-10510.924376,-2960.823768,-67876.061123
263.821127,-9326.594869,1924.535449,-65271.336430
263.823680,9178.553681,-2516.700203,-69101.813920
263.826234,39971.120868,5921.647536,-72166.195912
263.828787,26795.455100,3997.112087,-63739.145434
263.831341,-40563.285622,-5329.482782,-64811.679131
263.833894,-15840.407159,3404.947333,-66190.651027
263.836448,48705.550984,3256.906145,-62513.392637
263.839001,60992.969621,-3552.988522,-67722.842023
263.841555,-10658.965565,148.041188,-70021.128517
263.844109,-21465.972318,-2220.617826,-59602.229744
263.846662,6365.771101,2516.700203,-64658.460031
263.849216,16580.613101,5773.606348,-73698.386908
263.851769,30644.525999,-2220.617826,-66803.527426
263.854323,-21614.013506,-1036.288319,-60215.106143
263.856876,23834.631332,5625.565159,-61440.858940
263.859430,56551.733969,15544.324782,-59142.572446
263.861983,-7254.018232,-7105.977043,-73545.167808
263.864537,-15396.283594,-1184.329507,-72625.853210
263.867091,30792.567187,7254.018232,-53779.903960
263.869644,30348.443622,1480.411884,-64658.460031
263.872198,-38490.708984,-6069.688724,-77528.864398
263.874751,14952.160028,-1036.288319,-60674.763442
263.877305,33013.185013,3552.988522,-61900.516238
263.879858,34049.473332,15840.407159,-64658.460031
263.882412,-61289.051998,-10955.047942,-75230.577904
263.884965,-6957.935855,7846.182985,-70021.128517
263.887519,36418.132346,11251.130318,-67722.842023
263.890073,42487.821071,8586.388927,-64964.898230
263.892626,-7105.977043,-296.082377,-71093.662214
263.895180,-27831.743419,-5329.482782,-59295.791545
263.897733,-39823.079680,-3997.112087,-69867.909418
263.900287,31384.731941,12139.377449,-67416.403824
263.902840,31976.896694,6365.771101,-66190.651027
263.905394,13619.789333,7698.141797,-60368.325242
263.907947,-65138.122896,-5033.400406,-77222.426198
263.910501,31236.690752,4885.359217,-56844.285952
263.913055,25018.960840,8290.306550,-66803.527426
263.915575,-13767.830521,-6661.853478,-64198.802732
263.918095,-25759.166782,3552.988522,-68948.594820
263.920616,13027.624579,2960.823768,-63585.926334
263.923136,-1332.370696,-3256.906145,-72166.195912
263.925656,25907.207970,4885.359217,-64045.583633
263.928177,-8586.388927,1628.453072,-69867.909418
263.930697,-15396.283594,-4293.194464,-64658.460031
263.933218,-6069.688724,15544.324782,-62053.735338
263.935738,18653.189738,148.041188,-73085.510509
263.938258,32717.102636,-1924.535449,-73698.386908
263.940779,-1776.494261,592.164754,-58682.915147
263.943299,-49741.839302,-10510.924376,-66037.431928
263.945819,-11843.295072,2516.700203,-68642.156621
263.948340,51074.209998,5625.565159,-69408.252119
263.950860,68839.152606,9030.512492,-62819.830836
263.953380,-14656.077652,7550.100608,-62666.611736
263.955901,-28275.866984,-11843.295072,-65730.993728
263.958421,2368.659014,-2072.576638,-72166.195912
263.960942,45004.521274,6513.812290,-63126.269035
263.963462,38786.791361,4737.318029,-59602.229744
263.965982,-35825.967593,-4293.194464,-73085.510509
263.968503,14804.118840,-1184.329507,-70480.785816
263.971023,53590.910201,14656.077652,-60215.106143
263.973543,1184.329507,888.247130,-67263.184724
263.976064,-9326.594869,-9030.512492,-67416.403824
263.978584,27979.784608,12731.542202,-62973.049936
263.981105,16284.530724,8586.388927,-63279.488135
263.983625,-16284.530724,-5033.400406,-69867.909418
263.986145,13915.871710,3997.112087,-65271.336430
263.988666,32421.020260,15100.201217,-65730.993728
263.991186,-10066.800811,1184.329507,-66037.431928
263.993706,-17024.736666,-9178.553681,-58376.476948
263.996227,-4589.276840,7994.224174,-74617.701505
263.998747,54331.116143,8142.265362,-64811.679131
264.001268,22058.137072,1036.288319,-68029.280222
264.003788,-21169.889941,9770.718434,-63585.926334
264.006308,-51074.209998,-9474.636058,-66037.431928
264.008829,3701.029710,-888.247130,-66650.308326
264.011349,36418.132346,6365.771101,-70327.566716
264.013869,16432.571912,-296.082377,-60827.982541
264.016400,-28571.949361,-5921.647536,-65884.212828
264.018932,5181.441594,3701.029710,-71400.100414
264.021463,-5773.606348,-2812.782580,-70480.785816
264.023994,15248.242405,-1628.453072,-58070.038748
264.026525,-27535.661042,6069.688724,-69255.033019
264.029056,-7846.182985,-4293.194464,-69561.471218
264.031587,12435.459826,-1776.494261,-69561.471218
264.034118,18801.230927,7994.224174,-63739.145434
264.036649,-4145.153275,-2220.617826,-68488.937521
264.039180,-10214.842000,-3256.906145,-67416.403824
264.041711,-15248.242405,10510.924376,-64505.240932
264.044242,13175.665768,1776.494261,-66037.431928
264.046774,39082.873738,8290.306550,-73391.948708
264.049305,5921.647536,-1184.329507,-62666.611736
264.051836,-40267.203245,-444.123565,-63432.707234
264.054367,-12879.583391,10807.006753,-64964.898230
264.056898,19541.436869,-7846.182985,-73545.167808
264.059429,76981.417968,16136.489536,-65577.774629
264.061960,-4145.153275,17764.942608,-67109.965625
264.064491,-33161.226202,-444.123565,-61747.297139
264.067022,11547.212695,5477.523971,-64658.460031
264.069553,30496.484810,11695.253884,-68948.594820
264.072085,-16432.571912,-11103.089130,-77988.521696
264.074616,-13175.665768,1480.411884,-61747.297139
264.077147,13767.830521,148.041188,-70787.224015
264.079678,37306.379477,-1332.370696,-64198.802732
264.082209,29904.320057,-2812.782580,-62666.611736
264.084740,9030.512492,10955.047942,-62360.173537
264.087271,-5329.482782,-1036.288319,-64964.898230
264.089802,2664.741391,-17468.860231,-71093.662214
264.092333,2812.782580,-1036.288319,-63739.145434
264.094864,14063.912898,-4441.235652,-69561.471218
264.097395,23538.548956,14952.160028,-63739.145434
264.099927,-30940.608376,-10510.924376,-68029.280222
264.102458,-30052.361245,-5181.441594,-63892.364533
264.104989,15840.407159,6513.812290,-69561.471218
264.107520,46040.809592,5033.400406,-68642.156621
264.110051,11251.130318,-888.247130,-67569.622924
264.112582,-27387.619854,-740.205942,-66037.431928
264.115113,-38786.791361,-592.164754,-62973.049936
264.117654,7402.059420,-1628.453072,-69255.033019
264.120194,38490.708984,9474.636058,-66650.308326
264.122734,5921.647536,2664.741391,-68335.718422
264.125275,-65286.164084,-9770.718434,-77222.426198
264.127815,23982.672521,6217.729913,-58836.134246
264.130356,22502.260637,9474.636058,-70480.785816
264.132896,-444.123565,-1776.494261,-62206.954438
264.135437,-31236.690752,-2960.823768,-70634.004916
264.137977,3108.864956,-1036.288319,-64811.679131
264.140517,-1924.535449,-5921.647536,-70787.224015
264.143058,23242.466579,4145.153275,-66497.089226
264.145598,4145.153275,2664.741391,-65884.212828
264.148139,-19541.436869,1924.535449,-66956.746525
264.150679,-17468.860231,1480.411884,-66343.870127
264.153220,58032.145853,5477.523971,-64505.240932
264.155760,35381.844028,5477.523971,-72012.976812
264.158300,0.000000,888.247130,-56997.505051
264.160841,-53442.869012,-4293.194464,-66956.746525
264.163381,-17764.942608,11843.295072,-68029.280222
264.165922,75649.047272,15100.201217,-61747.297139
264.168462,33161.226202,-148.041188,-72012.976812
264.171003,-12287.418637,1924.535449,-60061.887043
264.173543,-33605.349767,-4885.359217,-67109.965625
264.176084,20725.766376,6513.812290,-66956.746525
264.178624,31384.731941,10807.006753,-71246.881314
264.181164,-5625.565159,-5181.441594,-63739.145434
264.183705,6069.688724,3849.070898,-58682.915147
264.186245,1332.370696,2664.741391,-75230.577904
264.188786,45152.562462,6217.729913,-63432.707234
264.191326,-148.041188,1332.370696,-69714.690318
264.193867,-12287.418637,-1036.288319,-67722.842023
264.196407,9326.594869,2072.576638,-64352.021832
264.198947,17912.983796,8438.347739,-65577.774629
264.201488,12435.459826,6069.688724,-66497.089226
264.204028,22798.343014,-3256.906145,-68182.499322
264.206569,1332.370696,1776.494261,-60827.982541
264.209109,-52850.704259,-15988.448347,-67569.622924
264.211650,-13323.706956,-5181.441594,-73698.386908
264.214190,52406.580694,13323.706956,-63432.707234
264.216731,31976.896694,2220.617826,-65118.117330
264.219241,-24426.796086,-3997.112087,-68642.156621
264.221753,-32272.979071,-5181.441594,-62666.611736
264.224265,-5033.400406,-2664.741391,-66650.308326
264.226777,20577.725188,5329.482782,-71859.757712
264.229289,27239.578666,7846.182985,-63279.488135
264.231801,-11547.212695,-1036.288319,-60521.544342
264.234313,-4737.318029,-2368.659014,-73698.386908
264.236825,-2220.617826,2072.576638,-68182.499322
264.239337,24722.878463,0.000000,-56844.285952
264.241849,-41303.491564,592.164754,-73545.167808
264.244361,-2812.782580,2368.659014,-67263.184724
264.246873,11103.089130,1776.494261,-68488.937521
264.249385,16284.530724,10214.842000,-63892.364533
264.251896,-444.123565,4737.318029,-67109.965625
264.254408,-7846.182985,5477.523971,-64658.460031
264.256920,-11843.295072,4441.235652,-64658.460031
264.259432,45744.727216,-1036.288319,-63126.269035
264.261944,30200.402434,2960.823768,-77222.426198
264.264456,7698.141797,7550.100608,-56997.505051
264.266968,-46040.809592,-2516.700203,-66497.089226
264.269480,-17616.901420,1480.411884,-66343.870127
264.271992,49741.839302,11399.171507,-66037.431928
264.274504,20725.766376,10510.924376,-79673.931792
264.277016,16136.489536,444.123565,-55312.094956
264.279528,-34345.555709,-444.123565,-66650.308326
264.282040,-5329.482782,-2072.576638,-70634.004916
264.284551,57736.063476,12879.583391,-65271.336430
264.287063,-10362.883188,5921.647536,-65424.555529
264.289575,9178.553681,12139.377449,-59602.229744
264.292087,-2664.741391,3256.906145,-75537.016103
264.294599,32272.979071,-10066.800811,-65271.336430
264.297111,21910.095883,14359.995275,-62513.392637
264.299623,23242.466579,5625.565159,-53626.684860
264.302135,-27535.661042,-4145.153275,-75843.454302
264.304647,-3552.988522,1924.535449,-68488.937521
264.307159,30348.443622,2220.617826,-60521.544342
264.309671,28127.825796,7254.018232,-66190.651027
264.312183,-4441.235652,3108.864956,-61287.639840
264.314695,-67210.699534,-15988.448347,-70174.347617
264.317206,8882.471304,10214.842000,-67416.403824
264.319732,43968.232955,11251.130318,-68948.594820
264.322257,28719.990550,4885.359217,-66497.089226
264.324782,-19837.519246,2960.823768,-66956.746525
264.327307,-45744.727216,-296.082377,-64198.802732
264.329833,-5625.565159,1628.453072,-70021.128517
264.332358,36270.091158,9178.553681,-68182.499322
264.334883,11843.295072,-2664.741391,-67109.965625
264.337408,-34641.638086,-6661.853478,-77069.207099
264.339933,12139.377449,592.164754,-59602.229744
264.342459,23242.466579,6809.894666,-67722.842023
264.344984,-6957.935855,-1776.494261,-67263.184724
264.347509,-23242.466579,-6365.771101,-67569.622924
264.350034,7402.059420,5625.565159,-62053.735338
264.352559,7105.977043,4737.318029,-68642.156621
264.355085,4293.194464,-4441.235652,-70480.785816
264.357610,17320.819043,5625.565159,-61900.516238
264.360135,-14656.077652,-7846.182985,-67416.403824
264.362660,-8734.430116,148.041188,-63892.364533
264.365186,62917.505070,11695.253884,-66343.870127
264.367711,34197.514520,13767.830521,-67416.403824
264.370236,-10214.842000,-5921.647536,-59295.791545
264.372761,-52702.663070,-6069.688724,-69561.471218
264.375286,888.247130,7105.977043,-66343.870127
264.377812,80386.365301,11399.171507,-60981.201641
264.380337,28719.990550,2664.741391,-70634.004916
264.382862,-23390.507767,1036.288319,-62206.954438
264.385387,-6513.812290,4589.276840,-59449.010645
264.387913,18505.148550,10955.047942,-67722.842023
264.390438,56699.775157,0.000000,-59602.229744
264.392963,-31236.690752,-10066.800811,-77069.207099
264.395488,3552.988522,6957.935855,-60981.201641
264.398013,33605.349767,8290.306550,-61747.297139
264.400539,29904.320057,-148.041188,-66956.746525
264.403064,-7994.224174,-5773.606348,-71553.319513
264.405589,-4737.318029,9622.677246,-66650.308326
264.408114,2368.659014,5921.647536,-61287.639840
264.410640,17468.860231,-296.082377,-63279.488135
264.413165,21317.931130,11991.336260,-69714.690318
264.415690,17468.860231,18801.230927,-73698.386908
264.418215,-79794.200548,-19393.395680,-74311.263306
264.420752,-5477.523971,1480.411884,-58989.353346
264.423288,29312.155303,8734.430116,-72472.634111
264.425825,45152.562462,-1332.370696,-68948.594820
264.428361,-2368.659014,-2664.741391,-69714.690318
264.430897,-33605.349767,3701.029710,-59142.572446
264.433434,-43968.232955,-11991.336260,-72625.853210
264.435970,37454.420665,8734.430116,-66037.431928
264.438507,35825.967593,12731.542202,-64045.583633
264.441043,-35381.844028,-9622.677246,-70174.347617
264.443580,-18801.230927,-1924.535449,-72779.072310
264.446116,12583.501014,4885.359217,-63432.707234
264.448653,24722.878463,888.247130,-58376.476948
264.451189,-41747.615129,-7698.141797,-75383.797003
264.453725,-2220.617826,-4885.359217,-65118.117330
264.456262,10066.800811,4589.276840,-67876.061123
264.458798,15248.242405,6217.729913,-63739.145434
264.461335,1924.535449,3552.988522,-67876.061123
264.463871,-9474.636058,8586.388927,-66190.651027
264.466408,-17764.942608,-6069.688724,-65271.336430
264.468944,12879.583391,2368.659014,-65424.555529
264.471481,39526.997303,5033.400406,-73085.510509
264.474017,11991.336260,1332.370696,-56384.628653
264.476553,-53294.827824,-4145.153275,-68642.156621
264.479090,-8438.347739,2960.823768,-65424.555529
264.481626,52850.704259,6809.894666,-63279.488135
264.484163,61289.051998,4145.153275,-66497.089226
264.486699,-24722.878463,-6069.688724,-68795.375720
264.489236,-17320.819043,-4441.235652,-61440.858940
264.491772,6513.812290,5921.647536,-72472.634111
264.494309,39675.038491,14804.118840,-66343.870127
264.496845,5181.441594,-6661.853478,-61594.078039
264.499381,16136.489536,8586.388927,-59908.667944
264.501918,17468.860231,5921.647536,-69101.813920
264.504454,6661.853478,-8142.265362,-73085.510509
264.506991,27387.619854,3701.029710,-63279.488135
264.509527,1924.535449,-3701.029710,-63126.269035
264.512064,4737.318029,0.000000,-64352.021832
264.514600,4737.318029,-592.164754,-66343.870127
264.517137,21910.095883,740.205942,-68948.594820
264.519673,42043.697506,11399.171507,-64811.679131
264.522219,-67358.740722,-12435.459826,-66650.308326
264.524765,-26055.249158,-4737.318029,-66803.527426
264.527311,23982.672521,13027.624579,-73698.386908
264.529857,54627.198520,2664.741391,-66803.527426
264.532402,5625.565159,1332.370696,-63279.488135
264.534948,-45152.562462,1776.494261,-63892.364533
264.537494,-26351.331535,-2664.741391,-68795.375720
264.540040,28423.908173,7846.182985,-68488.937521
264.542586,26203.290347,4145.153275,-69408.252119
264.545132,-25463.084405,-3849.070898,-66956.746525
264.547678,1924.535449,6069.688724,-59602.229744
264.550224,12139.377449,4737.318029,-66956.746525
264.552769,6513.812290,3404.947333,-65118.117330
264.555315,-17912.983796,-1332.370696,-68488.937521
264.557861,-3256.906145,0.000000,-65884.212828
264.560407,5625.565159,6513.812290,-67569.622924
264.562953,-592.164754,-2664.741391,-68795.375720
264.565499,23686.590144,1776.494261,-60827.982541
264.568045,-15988.448347,-7550.100608,-68795.375720
264.570591,-31384.731941,-9474.636058,-69101.813920
264.573136,57291.939911,8586.388927,-60674.763442
264.575682,38490.708984,7698.141797,-66956.746525
264.578228,-7846.182985,-7698.141797,-59602.229744
264.580774,-54331.116143,-6069.688724,-67416.403824
264.583320,-12139.377449,12139.377449,-71093.662214
264.585866,70763.688055,888.247130,-64352.021832
264.588412,84383.477388,20429.683999,-55465.314055
264.590958,-66914.617157,-1184.329507,-75843.454302
264.593503,-12287.418637,-19541.436869,-60827.982541
264.596049,12583.501014,8290.306550,-72012.976812
264.598595,79053.994606,16284.530724,-54086.342159
264.601141,-17616.901420,-16876.695478,-74924.139704
264.603687,-19245.354492,7105.977043,-66037.431928
264.606233,16876.695478,2664.741391,-70940.443115
264.608779,66174.411215,14952.160028,-52707.370262
264.611325,-38490.708984,-7846.182985,-82125.437386
264.613870,36566.173535,740.205942,-49949.426470
264.616416,-33013.185013,1184.329507,-73851.606007
264.618962,6809.894666,-5921.647536,-72166.195912
264.621508,57439.981099,3849.070898,-58682.915147
264.624061,18801.230927,-4441.235652,-64352.021832
264.626614,-82903.065504,-5773.606348,-72012.976812
264.629167,-6957.935855,-148.041188,-72012.976812
264.631719,57736.063476,12139.377449,-65730.993728
264.634272,30792.567187,1628.453072,-68029.280222
264.636825,-31384.731941,-5033.400406,-67416.403824
264.639378,-41895.656317,592.164754,-62973.049936
264.641931,9030.512492,3108.864956,-66190.651027
264.644484,35529.885216,5181.441594,-68948.594820
264.647037,-2072.576638,-6809.894666,-70787.224015
264.649590,-13767.830521,-592.164754,-60368.325242
264.652142,-10658.965565,5033.400406,-64505.240932
264.654695,-9474.636058,-6957.935855,-77375.645298
264.657248,-4885.359217,-1036.288319,-66650.308326
264.659801,-2368.659014,-3701.029710,-64352.021832
264.662354,-1184.329507,11399.171507,-65884.212828
264.664907,2516.700203,3701.029710,-67416.403824
264.667460,8882.471304,-2220.617826,-71093.662214
264.670013,15396.283594,11399.171507,-59295.791545
264.672565,-31976.896694,7698.141797,-69101.813920
264.675118,-296.082377,4441.235652,-67569.622924
264.677671,71948.017562,17912.983796,-66343.870127
264.680224,27979.784608,4441.235652,-64198.802732
264.682777,-30200.402434,-11103.089130,-62206.954438
264.685330,-10214.842000,-3404.947333,-60215.106143
264.687883,34493.596897,6513.812290,-67416.403824
264.690436,61881.216751,592.164754,-70940.443115
264.692988,-3404.947333,-1924.535449,-62973.049936
264.695541,-37306.379477,-1184.329507,-62360.173537
264.698094,29016.072926,-740.205942,-63892.364533
264.700647,5773.606348,2812.782580,-76303.111601
264.703200,1776.494261,-1184.329507,-67416.403824
264.705753,25463.084405,9030.512492,-57303.943250
264.708306,8586.388927,3552.988522,-69255.033019
264.710859,-740.205942,5329.482782,-73851.606007
264.713411,27979.784608,10066.800811,-58376.476948
264.715964,-1184.329507,7254.018232,-67416.403824
264.718517,-3997.112087,5181.441594,-63739.145434
264.721070,-592.164754,-2220.617826,-68948.594820
264.723623,37454.420665,1924.535449,-66343.870127
264.726182,24278.754898,6809.894666,-62360.173537
264.728741,-70023.482113,-14952.160028,-70787.224015
264.731300,-10807.006753,-5477.523971,-65118.117330
264.733859,31828.855506,6217.729913,-72166.195912
264.736418,45744.727216,3404.947333,-68795.375720
264.738977,-26943.496289,-1480.411884,-67263.184724
264.741536,-36714.214723,-3108.864956,-60521.544342
264.744095,6069.688724,-2516.700203,-67109.965625
264.746654,20133.601622,1332.370696,-72625.853210
264.749213,6513.812290,-296.082377,-63432.707234
264.751772,-4293.194464,5773.606348,-60827.982541
264.754331,-9178.553681,-3108.864956,-68948.594820
264.756890,-9622.677246,-8734.430116,-71246.881314
264.759449,-4737.318029,1036.288319,-68335.718422
264.762008,11103.089130,-1036.288319,-58682.915147
264.764567,-10658.965565,3552.988522,-71093.662214
264.767126,14359.995275,5477.523971,-64658.460031
264.769685,7254.018232,3701.029710,-64811.679131
264.772244,148.041188,5625.565159,-66650.308326
264.774803,-29756.278868,-3256.906145,-69255.033019
264.777362,21317.931130,1776.494261,-66803.527426
264.779921,58032.145853,9622.677246,-69255.033019
264.782480,14359.995275,-740.205942,-62053.735338
264.785039,-32717.102636,-4293.194464,-63279.488135
264.787598,-18949.272115,-6661.853478,-63892.364533
264.790157,36418.132346,-5181.441594,-70634.004916
264.792716,79646.159359,11251.130318,-59755.448844
264.795275,-29312.155303,-10658.965565,-70174.347617
264.797834,-14211.954086,-12731.542202,-59755.448844
264.800394,7402.059420,-10066.800811,-73391.948708
264.802953,29756.278868,740.205942,-71246.881314
264.805512,15100.201217,9178.553681,-64352.021832
264.808071,-7698.141797,-7402.059420,-66803.527426
264.810630,16136.489536,6217.729913,-67876.061123
264.813189,41895.656317,4737.318029,-62973.049936
264.815748,11399.171507,8586.388927,-64964.898230
264.818307,-25759.166782,-1332.370696,-71093.662214
264.820866,-2072.576638,-2960.823768,-66037.431928
264.823425,21762.054695,5773.606348,-67722.842023
264.825984,33013.185013,19097.313304,-70174.347617
264.828548,-12435.459826,5625.565159,-65577.774629
264.831112,-40267.203245,-9770.718434,-58070.038748
264.833676,-16432.571912,2072.576638,-73545.167808
264.836240,56255.651592,15840.407159,-66956.746525
264.838804,24722.878463,-6217.729913,-69867.909418
264.841368,-17320.819043,-3701.029710,-61287.639840
264.843932,-54479.157331,-4441.235652,-70021.128517
264.846496,31532.773129,5329.482782,-64964.898230
264.849059,19689.478057,148.041188,-72779.072310
264.851623,5625.565159,2220.617826,-60061.887043
264.854187,-33753.390955,-3108.864956,-65271.336430
264.856751,-9178.553681,-3108.864956,-71553.319513
264.859315,19689.478057,10066.800811,-67416.403824
264.861879,6217.729913,-444.123565,-62053.735338
264.864443,-25315.043216,-1480.411884,-71400.100414
264.867007,-4737.318029,1924.535449,-66190.651027
264.869571,17320.819043,-1036.288319,-65118.117330
264.872135,4441.235652,592.164754,-67722.842023
264.874699,-17172.777854,-444.123565,-66803.527426
264.877263,-13915.871710,-9030.512492,-68642.156621
264.879827,61437.093186,7105.977043,-63892.364533
264.882391,26647.413912,1332.370696,-72012.976812
264.884955,-7994.224174,-10955.047942,-61440.858940
264.887519,-32717.102636,3404.947333,-63585.926334
264.890083,2516.700203,14359.995275,-63432.707234
264.892647,48261.427418,-4441.235652,-72932.291410
264.895211,43079.985824,13767.830521,-65577.774629
264.897775,-28275.866984,3108.864956,-60827.982541
264.900339,5181.441594,13767.830521,-60981.201641
264.902903,592.164754,148.041188,-79520.712692
264.905467,52110.498317,-1924.535449,-62360.173537
264.908031,9030.512492,10214.842000,-59295.791545
264.910595,-9178.553681,-6661.853478,-65730.993728
264.913159,444.123565,5329.482782,-75077.358804
264.915723,54775.239708,10066.800811,-56691.066852
264.918287,9622.677246,-3997.112087,-65884.212828
264.920851,-35529.885216,-1480.411884,-69101.813920
264.923415,6365.771101,-1480.411884,-64045.583633
264.925979,39971.120868,3552.988522,-66803.527426
264.928543,25611.125593,1628.453072,-64658.460031
264.931110,-69135.234983,-5329.482782,-67876.061123
264.933677,-25611.125593,-1480.411884,-67263.184724
264.936244,35085.761651,14804.118840,-71706.538613
264.938811,49149.674549,8586.388927,-66190.651027
264.941378,-11547.212695,-1184.329507,-69408.252119
264.943945,-43079.985824,-1332.370696,-60521.544342
264.946512,-11991.336260,-5773.606348,-67109.965625
264.949079,29016.072926,3256.906145,-73085.510509
264.951646,-9918.759623,-5921.647536,-70787.224015
264.954213,-15840.407159,-4293.194464,-65884.212828
264.956780,8586.388927,13471.748144,-60674.763442
264.959347,6069.688724,7254.018232,-68182.499322
264.961914,-28868.031738,-2516.700203,-75537.016103
264.964481,23538.548956,11547.212695,-56844.285952
264.967048,-7550.100608,3997.112087,-68029.280222
264.969615,-6217.729913,-4589.276840,-70174.347617
264.972182,7994.224174,5625.565159,-67876.061123
264.974749,1924.535449,10807.006753,-63126.269035
264.977316,-26795.455100,-7698.141797,-74311.263306
264.979883,67802.864287,2664.741391,-60215.106143
264.982450,25907.207970,9770.718434,-70327.566716
264.985017,-7254.018232,-1036.288319,-62053.735338
264.987584,-19985.560434,6513.812290,-60061.887043
264.990151,-11103.089130,7846.182985,-71093.662214
264.992718,44116.274143,-4441.235652,-71859.757712
264.995285,62473.381505,21169.889941,-58682.915147
264.997852,-27979.784608,148.041188,-67263.184724
265.000419,-18061.024985,-9770.718434,-66190.651027
265.002986,28571.949361,9474.636058,-67876.061123
265.005553,29016.072926,6365.771101,-61594.078039
265.008120,30348.443622,4589.276840,-58529.696047
265.010688,-12583.501014,-5329.482782,-71246.881314
265.013255,26351.331535,9770.718434,-67416.403824
265.015822,39378.956114,888.247130,-56384.628653
265.018389,-26351.331535,-10510.924376,-76149.892501
265.020956,5477.523971,1776.494261,-63739.145434
265.023523,14063.912898,3404.947333,-61134.420740
265.026090,18949.272115,4293.194464,-74004.825107
265.028657,39971.120868,8586.388927,-58070.038748
265.031224,-66914.617157,-8290.306550,-70787.224015
265.033793,-29016.072926,-1924.535449,-73851.606007
265.036363,44708.438897,7254.018232,-67569.622924
265.038933,44264.315332,2368.659014,-65884.212828
265.041503,-20873.807564,3997.112087,-67109.965625
265.044072,-48557.509795,-6217.729913,-65730.993728
265.046642,7402.059420,4145.153275,-66650.308326
265.049212,26943.496289,1332.370696,-73085.510509
265.051782,4885.359217,-2220.617826,-64352.021832
265.054351,-3552.988522,4293.194464,-58529.696047
265.056921,-17024.736666,2664.741391,-69255.033019
265.059491,16136.489536,7846.182985,-65424.555529
265.062061,-1480.411884,-6661.853478,-67722.842023
265.064630,-17172.777854,-3997.112087,-67722.842023
265.067200,2960.823768,-4589.276840,-65118.117330
265.069770,-5773.606348,-296.082377,-71246.881314
265.072339,20725.766376,-1184.329507,-62360.173537
265.074909,4145.153275,-2516.700203,-61747.297139
265.077479,-22502.260637,-1628.453072,-71706.538613
265.080049,50926.168810,4441.235652,-67722.842023
265.082618,34937.720462,11991.336260,-64964.898230
265.085188,-1924.535449,-2960.823768,-60521.544342
265.087758,-41303.491564,-4885.359217,-69255.033019
265.090328,36566.173535,15692.365970,-63585.926334
265.092897,36714.214723,-4885.359217,-73545.167808
265.095467,22798.343014,-1332.370696,-62360.173537
265.098037,-31976.896694,7846.182985,-66497.089226
265.100607,-8290.306550,-13619.789333,-67109.965625
265.103176,49149.674549,10807.006753,-64964.898230
265.105746,28571.949361,2960.823768,-65884.212828
265.108316,-24426.796086,-6513.812290,-70327.566716
265.110885,17320.819043,1924.535449,-66037.431928
265.113455,21317.931130,-2960.823768,-65730.993728
265.116025,148.041188,1480.411884,-66803.527426
265.118595,11695.253884,11103.089130,-62053.735338
265.121164,-10807.006753,1480.411884,-67569.622924
265.123734,9770.718434,4885.359217,-69561.471218
265.126304,39526.997303,18653.189738,-65577.774629
265.128874,-40119.162056,-1924.535449,-68795.375720
265.131443,-8586.388927,-5033.400406,-55771.752254
265.134013,-5477.523971,10807.006753,-74924.139704
265.136585,43820.191766,11991.336260,-66956.746525
265.139157,16728.654289,-5625.565159,-69714.690318
265.141729,-28571.949361,-444.123565,-59908.667944
265.144301,-26203.290347,-1480.411884,-69408.252119
265.146873,22946.384202,1776.494261,-69255.033019
265.149445,22058.137072,-888.247130,-69561.471218
265.152017,-15100.201217,444.123565,-64198.802732
265.154589,-10214.842000,6069.688724,-59142.572446
265.157160,-3108.864956,-3108.864956,-73698.386908
265.159732,4737.318029,-1628.453072,-67263.184724
265.162304,10807.006753,2220.617826,-62819.830836
265.164876,-26203.290347,-888.247130,-71093.662214
265.167448,-7698.141797,-3849.070898,-69561.471218
265.170020,21169.889941,3997.112087,-66497.089226
265.172592,-9178.553681,3552.988522,-67416.403824
265.175164,-14211.954086,-2960.823768,-64505.240932
265.177736,44412.356520,5625.565159,-62053.735338
265.180308,17912.983796,2960.823768,-75996.673402
265.182880,10066.800811,-6513.812290,-60674.763442
265.185452,-30940.608376,-5181.441594,-64352.021832
265.188024,-5033.400406,11103.089130,-62666.611736
265.190596,42191.738694,5033.400406,-71093.662214
265.193168,28719.990550,-9918.759623,-70940.443115
265.195739,-27831.743419,2072.576638,-65577.774629
265.198311,7698.141797,444.123565,-56537.847752
265.200883,17764.942608,1480.411884,-71553.319513
265.203455,-740.205942,-7698.141797,-77988.521696
265.206027,19689.478057,4737.318029,-56997.505051
265.208599,25463.084405,13027.624579,-60521.544342
265.211171,-19541.436869,2072.576638,-79520.712692
265.213743,38194.626607,5625.565159,-58376.476948
265.216315,8734.430116,8438.347739,-63279.488135
265.218887,-15988.448347,2368.659014,-68948.594820
265.221459,1332.370696,-5033.400406,-71400.100414
265.224031,41155.450375,27831.743419,-64198.802732
265.226603,-19689.478057,4737.318029,-65730.993728
265.229175,-5625.565159,-19689.478057,-49796.207370
265.231746,-36566.173535,-4589.276840,-83657.628382
265.234318,45300.603650,5181.441594,-66190.651027
265.236890,35677.926404,2368.659014,-63126.269035
265.239462,-21021.848753,3256.906145,-64045.583633
265.242035,-48409.468607,-4737.318029,-69561.471218
265.244609,20133.601622,4737.318029,-65271.336430
265.247182,33309.267390,13619.789333,-66803.527426
265.249755,10510.924376,7698.141797,-59755.448844
265.252329,-14508.036463,3108.864956,-67569.622924
265.254902,-30644.525999,-9326.594869,-77682.083497
265.257475,17468.860231,-3552.988522,-60827.982541
265.260049,10510.924376,5921.647536,-62819.830836
265.262622,-24130.713709,-1036.288319,-74311.263306
265.265195,10658.965565,-2812.782580,-62053.735338
265.267769,-2960.823768,-1332.370696,-68948.594820
265.270342,4589.276840,2960.823768,-66956.746525
265.272915,-16284.530724,-6069.688724,-68029.280222
265.275489,44560.397708,5921.647536,-67263.184724
265.278062,33309.267390,11991.336260,-66803.527426
265.280635,-148.041188,-444.123565,-60827.982541
265.283208,-39082.873738,-9178.553681,-70787.224015
265.285782,17024.736666,18505.148550,-60061.887043
265.288355,35381.844028,1776.494261,-72012.976812
265.290928,18505.148550,444.123565,-69408.252119
265.293502,-4441.235652,4589.276840,-61134.420740
265.296075,-22058.137072,-3256.906145,-70787.224015
265.298648,17024.736666,13027.624579,-67109.965625
265.301222,22946.384202,-6365.771101,-66650.308326
265.303795,13175.665768,-1628.453072,-62666.611736
265.306368,30496.484810,11251.130318,-62053.735338
265.308942,-5033.400406,-7402.059420,-72779.072310
265.311515,29164.114115,10066.800811,-61134.420740
265.314088,-5329.482782,3404.947333,-69561.471218
265.316661,5033.400406,-148.041188,-63892.364533
265.319235,-888.247130,0.000000,-69714.690318
265.321808,31384.731941,19393.395680,-64505.240932
265.324381,-21317.931130,-1628.453072,-64505.240932
265.326955,-15100.201217,-7994.224174,-58070.038748
265.329528,10807.006753,8734.430116,-72625.853210
265.332101,27535.661042,6957.935855,-70787.224015
265.334675,1480.411884,-4441.235652,-67722.842023
265.337248,-19689.478057,4737.318029,-60981.201641
265.339821,-24426.796086,-1480.411884,-71246.881314
265.342395,21169.889941,4293.194464,-66497.089226
265.344970,30792.567187,9178.553681,-61747.297139
265.347544,-19985.560434,1628.453072,-67263.184724
265.350118,-22354.219448,-1184.329507,-66956.746525
265.352692,9326.594869,3701.029710,-66803.527426
265.355266,3256.906145,3108.864956,-64811.679131
265.357841,444.123565,1332.370696,-66190.651027
265.360415,-8882.471304,592.164754,-68335.718422
265.362989,-8882.471304,-6069.688724,-69255.033019
265.365563,10066.800811,8734.430116,-64964.898230
265.368137,2664.741391,12583.501014,-66190.651027
265.370711,-10066.800811,-4293.194464,-69714.690318
265.373286,56107.610404,10510.924376,-64505.240932
265.375860,26647.413912,15396.283594,-63585.926334
265.378434,-19097.313304,-10807.006753,-62666.611736
265.381008,-20281.642811,3701.029710,-67263.184724
265.383582,26351.331535,10066.800811,-64045.583633
265.386157,66026.370026,-6069.688724,-60368.325242
265.388731,-16728.654289,-8290.306550,-72625.853210
265.391305,-1184.329507,-6661.853478,-61747.297139
265.393879,-8438.347739,-6365.771101,-70787.224015
265.396453,32124.937883,9474.636058,-67722.842023
265.399027,33753.390955,-8734.430116,-61594.078039
265.401602,3108.864956,-148.041188,-64198.802732
265.404176,-8882.471304,-592.164754,-73851.606007
265.406750,37898.544230,4145.153275,-58070.038748
265.409324,38342.667796,11103.089130,-60521.544342
265.411898,-17468.860231,-3552.988522,-68948.594820
265.414473,1628.453072,-9326.594869,-67109.965625
265.417047,26647.413912,-3552.988522,-66343.870127
265.419621,23242.466579,10955.047942,-59449.010645
265.422195,-67062.658345,-14508.036463,-75690.235202
265.424769,-888.247130,-1628.453072,-64658.460031
265.427344,32124.937883,10658.965565,-66343.870127
265.429918,15840.407159,-4737.318029,-70327.566716
265.432492,-4885.359217,-1924.535449,-65577.774629
265.435066,-34197.514520,-1332.370696,-66190.651027
265.437640,7550.100608,1480.411884,-68182.499322
265.440214,19541.436869,-888.247130,-69255.033019
265.442789,9918.759623,1036.288319,-60368.325242
265.445363,-17912.983796,4441.235652,-62053.735338
265.447938,-26351.331535,-11103.089130,-75843.454302
265.450513,15396.283594,2516.700203,-65118.117330
265.453088,22946.384202,5625.565159,-57916.819649
265.455663,-17172.777854,-888.247130,-71400.100414
265.458238,-25463.084405,-7846.182985,-70327.566716
265.460813,21614.013506,1924.535449,-64045.583633
265.463388,7846.182985,5625.565159,-62819.830836
265.465963,-6661.853478,-2960.823768,-70940.443115
265.468537,38342.667796,-888.247130,-66803.527426
265.471112,12583.501014,3701.029710,-68795.375720
265.473687,2812.782580,-5329.482782,-61747.297139
265.476262,-21762.054695,-5033.400406,-64658.460031
265.478837,16136.489536,-3404.947333,-65730.993728
265.481412,31236.690752,-444.123565,-71859.757712
265.483987,22354.219448,1480.411884,-65884.212828
265.486562,-4737.318029,-444.123565,-60827.982541
265.489136,11695.253884,8438.347739,-65424.555529
265.491711,42783.903448,10362.883188,-56844.285952
265.494286,15100.201217,9326.594869,-68182.499322
265.496861,-27239.578666,-13027.624579,-77528.864398
265.499436,35085.761651,-5921.647536,-61900.516238
265.502011,42635.862259,13619.789333,-56537.847752
265.504586,3849.070898,4441.235652,-64505.240932
265.507161,-28571.949361,2220.617826,-77222.426198
265.509735,44560.397708,14063.912898,-56078.190454
265.512310,10658.965565,3256.906145,-69867.909418
265.514885,6513.812290,4293.194464,-64352.021832
265.517460,-39823.079680,-7105.977043,-66497.089226
265.520035,-1776.494261,-9474.636058,-68488.937521
265.522610,29016.072926,7402.059420,-69867.909418
265.525185,15988.448347,-8438.347739,-67876.061123
265.527760,-16432.571912,-6217.729913,-63432.707234
265.530334,-30052.361245,888.247130,-68182.499322
265.532909,16876.695478,2664.741391,-65577.774629
265.535484,18505.148550,7846.182985,-65118.117330
265.538059,3849.070898,2960.823768,-65884.212828
265.540634,-13767.830521,-3701.029710,-69255.033019
265.543209,-23686.590144,1924.535449,-70174.347617
265.545784,22058.137072,1628.453072,-58989.353346
265.548358,2812.782580,6513.812290,-64505.240932
265.550933,-16432.571912,-3997.112087,-74617.701505
265.553507,3552.988522,-592.164754,-64658.460031
265.556082,-5181.441594,4885.359217,-65884.212828
265.558657,7698.141797,-296.082377,-65271.336430
265.561231,-8882.471304,-6661.853478,-68948.594820
265.563806,56403.692780,6661.853478,-63892.364533
265.566380,14804.118840,888.247130,-70480.785816
265.568955,6217.729913,-5921.647536,-55005.656756
265.571530,-14211.954086,5625.565159,-65730.993728
265.574104,19393.395680,5921.647536,-66956.746525
265.576679,39526.997303,-148.041188,-70480.785816
265.579253,-2664.741391,-3108.864956,-70940.443115
265.581828,-3997.112087,6809.894666,-58682.915147
265.584403,30200.402434,4441.235652,-57457.162350
265.586977,4145.153275,-7550.100608,-74464.482406
265.589552,-1184.329507,-7402.059420,-73238.729609
265.592126,4885.359217,5773.606348,-63585.926334
265.594701,49741.839302,5477.523971,-55005.656756
265.597276,-18505.148550,-12879.583391,-74924.139704
265.599850,-2220.617826,5625.565159,-70174.347617
265.602425,16580.613101,6365.771101,-63585.926334
265.604999,-888.247130,-2960.823768,-67109.965625
265.607574,22502.260637,3701.029710,-67263.184724
265.610149,2664.741391,5921.647536,-61440.858940
265.612723,-43228.027013,-11103.089130,-65118.117330
265.615298,-2812.782580,-4441.235652,-71246.881314
265.617872,28719.990550,15988.448347,-68029.280222
265.620447,14508.036463,-7254.018232,-66956.746525
265.623022,-18061.024985,-888.247130,-66650.308326
265.625596,-28571.949361,-4885.359217,-69408.252119
265.628171,15396.283594,5625.565159,-68182.499322
265.630746,35233.802839,11103.089130,-60981.201641
265.633320,-13027.624579,-1924.535449,-68335.718422
265.635895,-26795.455100,-1480.411884,-68642.156621
265.638470,9474.636058,2368.659014,-65271.336430
265.641044,6661.853478,4293.194464,-64658.460031
265.643619,-2812.782580,5625.565159,-67109.965625
265.646194,-19245.354492,-10955.047942,-71246.881314
265.648769,15692.365970,8734.430116,-60521.544342
265.651343,12583.501014,8586.388927,-64811.679131
265.653918,-18505.148550,3552.988522,-70327.566716
265.656493,26795.455100,7846.182985,-64658.460031
265.659068,23686.590144,10658.965565,-72932.291410
265.661642,19245.354492,3849.070898,-59142.572446
265.664217,-29608.237680,-16284.530724,-68335.718422
265.666792,2072.576638,13619.789333,-62666.611736
265.669367,22206.178260,-4441.235652,-68948.594820
265.671941,35677.926404,-20725.766376,-68642.156621
265.674516,29164.114115,-4737.318029,-55312.094956
265.677091,-30348.443622,8290.306550,-70021.128517
265.679666,32569.061448,9178.553681,-63126.269035
265.682240,23094.425390,8438.347739,-70787.224015
265.684815,3997.112087,-6365.771101,-64811.679131
265.687390,1332.370696,6513.812290,-69255.033019
265.689965,3256.906145,2220.617826,-68795.375720
265.692539,34049.473332,0.000000,-62053.735338
265.695114,2960.823768,6069.688724,-70021.128517
265.697689,-1332.370696,-3256.906145,-65577.774629
265.700264,8586.388927,740.205942,-69101.813920
265.702838,17764.942608,17172.777854,-68029.280222
265.705413,-42783.903448,-1924.535449,-71553.319513
265.707988,-9770.718434,-4737.318029,-65577.774629
265.710563,27091.537477,14063.912898,-67569.622924
265.713137,26943.496289,-296.082377,-67263.184724
265.715712,-15396.283594,-1480.411884,-71093.662214
265.718287,-17764.942608,-1628.453072,-61440.858940
265.720862,-3256.906145,1184.329507,-68335.718422
265.723436,7846.182985,-296.082377,-72166.195912
265.726011,28868.031738,5477.523971,-59755.448844
265.728586,-28719.990550,-2960.823768,-68335.718422
265.731161,-21614.013506,-10066.800811,-71400.100414
265.733735,-6069.688724,-5033.400406,-72472.634111
265.736310,5329.482782,-888.247130,-63739.145434
265.738885,8882.471304,592.164754,-63126.269035
265.741459,-27387.619854,-1924.535449,-71093.662214
265.744034,17024.736666,444.123565,-65424.555529
265.746609,-2960.823768,-3701.029710,-65424.555529
265.749184,-4589.276840,-7105.977043,-70787.224015
265.751758,52258.539505,4589.276840,-64811.679131
265.754333,10066.800811,5033.400406,-66803.527426
265.756907,-148.041188,-6365.771101,-60981.201641
265.759482,-36270.091158,2220.617826,-68488.937521
265.762056,36270.091158,20873.807564,-62360.173537
265.764631,68395.029041,-9474.636058,-56537.847752
265.767205,-17616.901420,-19393.395680,-71859.757712
265.769780,-6809.894666,-6809.894666,-63279.488135
265.772354,-13323.706956,-13323.706956,-70787.224015
265.774929,66618.534780,16728.654289,-55924.971354
265.777503,12731.542202,6365.771101,-68335.718422
265.780078,-27387.619854,-6365.771101,-71859.757712
265.782652,19097.313304,1776.494261,-65577.774629
265.785227,31976.896694,13323.706956,-60827.982541
265.787801,27535.661042,7550.100608,-63279.488135
265.790375,2516.700203,2516.700203,-63892.364533
265.792950,2812.782580,-1924.535449,-70787.224015
265.795524,27239.578666,15396.283594,-63279.488135
265.798099,-37306.379477,-1332.370696,-68335.718422
265.800673,-9474.636058,-7402.059420,-65271.336430
265.803248,5921.647536,9030.512492,-69408.252119
265.805822,27387.619854,4145.153275,-68335.718422
265.808397,-3404.947333,-6069.688724,-69101.813920
265.810971,-10955.047942,2368.659014,-60827.982541
265.813546,-19393.395680,-2072.576638,-70480.785816
265.816120,7994.224174,6217.729913,-66343.870127
265.818695,22058.137072,-444.123565,-63585.926334
265.821269,-2812.782580,1036.288319,-68335.718422
265.823844,-33161.226202,-148.041188,-70787.224015
265.826418,33013.185013,444.123565,-56384.628653
265.828992,-26943.496289,5329.482782,-75996.673402
265.831567,10066.800811,-6661.853478,-65730.993728
265.834141,6069.688724,2664.741391,-62819.830836
265.836715,-12731.542202,2220.617826,-66803.527426
265.839289,1628.453072,-2960.823768,-64658.460031
265.841863,12879.583391,2812.782580,-69101.813920
265.844437,46929.056723,13767.830521,-68795.375720
265.847011,5181.441594,7846.182985,-64811.679131
265.849585,-5773.606348,-2812.782580,-60674.763442
265.852159,-35529.885216,-10362.883188,-71859.757712
265.854733,30348.443622,7254.018232,-64658.460031
265.857307,63065.546258,6513.812290,-65424.555529
265.859881,-12287.418637,2664.741391,-69101.813920
265.862455,-21762.054695,-6217.729913,-66190.651027
265.865029,24870.919651,-3108.864956,-64658.460031
265.867603,34493.596897,-3701.029710,-62973.049936
265.870176,35085.761651,15396.283594,-61440.858940
265.872750,-5625.565159,16728.654289,-69714.690318
265.875324,3108.864956,-15396.283594,-68029.280222
265.877898,28571.949361,592.164754,-60827.982541
265.880472,-2664.741391,-4145.153275,-69714.690318
265.883046,28275.866984,3849.070898,-61594.078039
265.885620,-444.123565,1036.288319,-69714.690318
265.888194,13323.706956,19837.519246,-66497.089226
265.890768,-33309.267390,-1924.535449,-68182.499322
265.893342,-12139.377449,-7254.018232,-66803.527426
265.895916,23686.590144,17024.736666,-66803.527426
265.898490,23538.548956,1924.535449,-68029.280222
265.901064,-18801.230927,-2220.617826,-70634.004916
265.903638,-17024.736666,-1036.288319,-62513.392637
265.906212,7550.100608,7105.977043,-65424.555529
265.908785,17468.860231,7402.059420,-65271.336430
265.911359,-6809.894666,-7698.141797,-69561.471218
265.913933,-19097.313304,-3552.988522,-71246.881314
