#time,accel_x,accel_y,accel_z
204.688356,1933.400661,363.709035,-9245.866526
204.690985,248.853550,306.281293,-9073.583299
204.693614,842.273555,1148.554848,-8767.302006
204.696243,2182.254211,-784.845813,-8786.444587
204.698872,478.564520,172.283227,-9226.723946
204.701500,2986.242605,1205.982590,-9131.011042
204.704129,1703.689691,-133.998066,-9475.577496
204.706758,1607.976787,1014.556782,-8748.159426
204.709387,3311.666478,1110.269686,-8595.018779
204.712016,-382.851616,1359.123237,-9437.292334
204.714644,3024.527766,-363.709035,-8288.737486
204.717273,880.558717,516.849682,-9226.723946
204.719902,727.418070,-76.570323,-9265.009107
204.722531,4804.787781,689.132909,-8020.741355
204.725160,5245.067139,-631.705166,-9379.864592
204.727788,-1646.261949,-3292.523898,-9762.716208
204.730417,-2833.101958,-593.420005,-10164.710405
204.733047,1761.117434,2622.533570,-8135.596840
204.735676,5245.067139,1914.258080,-8135.596840
204.738305,4938.785846,2603.390989,-8805.587168
204.740935,-1301.695494,-976.271621,-10107.282662
204.743564,2967.100024,-555.134843,-8671.589102
204.746194,3598.805190,746.560651,-8518.448456
204.748823,-1320.838075,57.427742,-9207.581365
204.751452,727.418070,1378.265818,-9054.440718
204.754082,4173.082614,267.996131,-8748.159426
204.756711,1780.260014,57.427742,-8977.870395
204.759341,-2660.818731,861.416136,-9801.001370
204.761970,2890.529701,440.279358,-8614.161360
204.764599,3713.660675,1148.554848,-8729.016845
204.767229,2335.394858,440.279358,-9322.436850
204.769858,708.275490,1110.269686,-8997.012976
204.772488,-937.986459,-76.570323,-8729.016845
204.775117,1225.125171,-210.568389,-8767.302006
204.777746,1741.974853,535.992262,-9456.434915
204.780376,1741.974853,1263.410333,-9513.862658
204.783005,2450.250342,440.279358,-8614.161360
204.785635,-2201.396792,-823.130974,-9035.298138
204.788264,-2067.398726,1129.412267,-9647.860723
204.790894,5225.924558,248.853550,-8690.731683
204.793523,2545.963246,1052.841944,-9035.298138
204.796152,-1818.545176,0.000000,-9322.436850
204.798782,-880.558717,-440.279358,-8824.729749
204.801411,2947.957443,823.130974,-9207.581365
204.804041,631.705166,210.568389,-9743.573627
204.806670,899.701298,918.843878,-9092.725880
204.809299,382.851616,95.712904,-8709.874264
204.811929,57.427742,650.847747,-9169.296203
204.814558,-76.570323,-95.712904,-9284.151688
204.817188,2220.539373,248.853550,-9035.298138
204.819818,689.132909,669.990328,-9073.583299
204.822447,-2545.963246,708.275490,-9896.714274
204.825077,-2967.100024,1588.834206,-9341.579430
204.827706,8231.309744,1512.263883,-8116.454259
204.830336,-6585.047795,-1952.543242,-10681.560086
204.832966,1569.691626,2373.680019,-8518.448456
204.835595,3407.379382,2545.963246,-8422.735552
204.838225,-3637.090352,38.285162,-9839.286531
204.840855,1205.982590,593.420005,-8920.442653
204.843484,2794.816797,1110.269686,-8556.733618
204.846114,-3330.809059,-689.132909,-10298.708470
204.848743,650.847747,-133.998066,-9360.722011
204.851373,2545.963246,1052.841944,-8843.872330
204.854003,-574.277424,-1148.554848,-9131.011042
204.856632,-1225.125171,516.849682,-9303.294269
204.859262,2373.680019,0.000000,-8977.870395
204.861892,1761.117434,669.990328,-9379.864592
204.864521,669.990328,210.568389,-9418.149754
204.867151,937.986459,133.998066,-9111.868461
204.869781,2277.967115,440.279358,-8767.302006
204.872410,-1990.828403,-114.855485,-9533.005238
204.875040,-210.568389,918.843878,-8748.159426
204.877669,4594.219392,995.414202,-8595.018779
204.880299,3254.238736,937.986459,-9303.294269
204.882929,0.000000,325.423874,-9245.866526
204.885558,784.845813,535.992262,-8633.303941
204.888188,95.712904,-76.570323,-9341.579430
204.890818,3177.668413,1320.838075,-9092.725880
204.893447,3771.088418,-95.712904,-8767.302006
204.896077,937.986459,535.992262,-8595.018779
204.898706,-2526.820666,-937.986459,-9456.434915
204.901336,2469.392923,708.275490,-9724.431046
204.903966,4115.654872,803.988394,-9150.153622
204.906595,2660.818731,842.273555,-8767.302006
204.909225,2201.396792,803.988394,-8480.163294
204.911855,-2622.533570,-612.562586,-9590.432981
204.914484,3196.810994,803.988394,-8843.872330
204.917114,2373.680019,1435.693560,-9073.583299
204.919744,1799.402595,-267.996131,-9073.583299
204.922369,-2488.535504,937.986459,-9801.001370
204.924995,-2890.529701,1263.410333,-9839.286531
204.927621,7714.460062,3369.094221,-7657.032320
204.930247,899.701298,2641.676150,-8480.163294
204.932873,3694.518094,918.843878,-8882.157491
204.935499,-4153.940034,-823.130974,-10547.562021
204.938125,1607.976787,1454.836141,-8767.302006
204.940751,7025.327154,1875.972918,-7791.030386
204.943377,-459.421939,-210.568389,-9973.284597
204.946003,306.281293,267.996131,-9111.868461
204.948628,4843.072942,191.425808,-7829.315547
204.951254,-459.421939,114.855485,-9265.009107
204.953880,287.138712,382.851616,-9667.003304
204.956506,4555.934230,172.283227,-8346.165229
204.959132,1110.269686,650.847747,-8958.727814
204.961758,1320.838075,267.996131,-8901.300072
204.964384,2852.244539,478.564520,-9207.581365
204.967010,2794.816797,172.283227,-9150.153622
204.969636,842.273555,880.558717,-8997.012976
204.972262,535.992262,191.425808,-8690.731683
204.974887,-38.285162,-95.712904,-8920.442653
204.977513,765.703232,363.709035,-9628.718142
204.980139,3732.803256,957.129040,-9073.583299
204.982765,1856.830338,325.423874,-8824.729749
204.985391,-689.132909,-784.845813,-8920.442653
204.988017,-2354.537438,918.843878,-10011.569758
204.990643,5168.496816,995.414202,-8595.018779
204.993269,2220.539373,344.566454,-8882.157491
204.995895,-2526.820666,823.130974,-9360.722011
204.998521,-306.281293,-229.710970,-8729.016845
205.001147,2029.113565,1320.838075,-9379.864592
205.003772,1339.980656,-344.566454,-9781.858789
205.006398,1493.121302,1052.841944,-8958.727814
205.009024,669.990328,535.992262,-8977.870395
205.011650,-1071.984525,-976.271621,-9092.725880
205.014276,478.564520,0.000000,-9073.583299
205.016902,497.707101,-38.285162,-9418.149754
205.019528,-478.564520,1205.982590,-9245.866526
205.022154,-3732.803256,918.843878,-10107.282662
205.024780,5053.641331,3043.670347,-7963.313613
205.027402,2163.111630,1033.699363,-8767.302006
205.030025,-2584.248408,-689.132909,-10509.276859
205.032648,3943.371645,306.281293,-7982.456194
205.035270,3751.945837,248.853550,-8729.016845
205.037893,-3751.945837,-2163.111630,-9724.431046
205.040516,-4536.791650,-2565.105827,-10298.708470
205.043138,4134.797453,2488.535504,-8805.587168
205.045761,2488.535504,1091.127106,-9303.294269
205.048383,-1263.410333,-746.560651,-9456.434915
205.051006,76.570323,1397.408398,-8997.012976
205.053629,1473.978722,-1148.554848,-8977.870395
205.056251,-823.130974,19.142581,-9552.147819
205.058874,1684.547110,1244.267752,-9092.725880
205.061497,3273.381317,133.998066,-8901.300072
205.064119,-937.986459,-344.566454,-9456.434915
205.066742,382.851616,-95.712904,-8901.300072
205.069365,2852.244539,210.568389,-8461.020714
205.071987,-344.566454,478.564520,-9705.288466
205.074610,3388.236802,-57.427742,-9111.868461
205.077233,4287.938099,669.990328,-8958.727814
205.079855,-899.701298,248.853550,-9360.722011
205.082478,-382.851616,784.845813,-8920.442653
205.085101,3273.381317,38.285162,-8556.733618
205.087723,3388.236802,746.560651,-9552.147819
205.090346,38.285162,593.420005,-9169.296203
205.092969,459.421939,-172.283227,-8518.448456
205.095591,3005.385186,306.281293,-8575.876198
205.098214,1761.117434,861.416136,-9533.005238
205.100836,2220.539373,918.843878,-9513.862658
205.103459,2411.965181,440.279358,-9111.868461
205.106082,2009.970984,-325.423874,-8384.450390
205.108704,-325.423874,1378.265818,-9073.583299
205.111327,2660.818731,1014.556782,-8671.589102
205.113950,2660.818731,-995.414202,-8920.442653
205.116572,2565.105827,-248.853550,-8729.016845
205.119195,4345.365842,-535.992262,-9073.583299
205.121818,-6527.620053,-2431.107762,-10241.280728
205.124440,4823.930362,-1588.834206,-8958.727814
205.127063,-1933.400661,-842.273555,-9762.716208
205.129686,1378.265818,1799.402595,-8786.444587
205.132306,2871.387120,1952.543242,-8288.737486
205.134926,3311.666478,19.142581,-8977.870395
205.137546,248.853550,727.418070,-9705.288466
205.140166,2488.535504,-1454.836141,-8843.872330
205.142787,1607.976787,1244.267752,-8805.587168
205.145407,2239.681954,976.271621,-9111.868461
205.148027,631.705166,516.849682,-9092.725880
205.150647,-133.998066,76.570323,-9379.864592
205.153268,76.570323,-440.279358,-9379.864592
205.155888,4268.795518,1416.550979,-8709.874264
205.158508,2105.683888,995.414202,-9456.434915
205.161128,248.853550,880.558717,-9054.440718
205.163748,861.416136,-191.425808,-8882.157491
205.166369,-133.998066,38.285162,-8997.012976
205.168989,669.990328,421.136778,-9303.294269
205.171609,3445.664544,1148.554848,-8863.014910
205.174229,2009.970984,650.847747,-9131.011042
205.176849,-1780.260014,-631.705166,-9245.866526
205.179470,-2009.970984,612.562586,-9781.858789
205.182090,5915.057467,-57.427742,-8365.307810
205.184710,746.560651,516.849682,-9418.149754
205.187330,-823.130974,861.416136,-9169.296203
205.189950,-306.281293,-535.992262,-8729.016845
205.192571,0.000000,593.420005,-9456.434915
205.195191,1761.117434,937.986459,-9456.434915
205.197811,3139.383251,555.134843,-8671.589102
205.200431,-1473.978722,382.851616,-9379.864592
205.203051,-1225.125171,-76.570323,-8977.870395
205.205672,2718.246474,1818.545176,-8824.729749
205.208292,-344.566454,-248.853550,-9513.862658
205.210912,-2316.252277,803.988394,-9571.290400
205.213532,-1225.125171,2277.967115,-8767.302006
205.216152,5130.211654,1473.978722,-8537.591037
205.218773,2852.244539,459.421939,-9131.011042
205.221393,-2182.254211,-1110.269686,-9150.153622
205.224013,4000.799387,76.570323,-8748.159426
205.226633,-248.853550,-191.425808,-9743.573627
205.229253,-631.705166,-650.847747,-9207.581365
205.231874,516.849682,-344.566454,-9379.864592
205.234494,2009.970984,497.707101,-9207.581365
205.237110,-1091.127106,765.703232,-9705.288466
205.239726,2622.533570,593.420005,-8307.880067
205.242342,-823.130974,650.847747,-9111.868461
205.244958,-650.847747,918.843878,-9341.579430
205.247574,2335.394858,306.281293,-9054.440718
205.250190,3388.236802,555.134843,-8939.585234
205.252806,172.283227,-497.707101,-9609.575562
205.255422,-574.277424,-306.281293,-8997.012976
205.258038,-1550.549045,1627.119368,-8901.300072
205.260654,3617.947771,133.998066,-8843.872330
205.263270,3981.656806,497.707101,-9265.009107
205.265886,2603.390989,248.853550,-9226.723946
205.268502,-1033.699363,478.564520,-8786.444587
205.271118,-612.562586,842.273555,-8920.442653
205.273734,3751.945837,-401.994197,-8939.585234
205.276350,3828.516160,727.418070,-9322.436850
205.278966,306.281293,516.849682,-8901.300072
205.281582,-1167.697429,95.712904,-8709.874264
205.284198,440.279358,248.853550,-8977.870395
205.286814,1952.543242,1531.406464,-9647.860723
205.289430,3962.514226,229.710970,-8939.585234
205.292046,765.703232,1033.699363,-9379.864592
205.294662,1320.838075,114.855485,-8748.159426
205.297278,-1014.556782,440.279358,-9150.153622
205.299894,3522.234867,114.855485,-8786.444587
205.302510,19.142581,1359.123237,-9724.431046
205.305126,248.853550,229.710970,-8843.872330
205.307742,5072.783912,1837.687757,-8154.739421
205.310358,612.562586,-363.709035,-9169.296203
205.312974,-899.701298,-1550.549045,-9992.427178
205.315590,-727.418070,1339.980656,-9552.147819
205.318206,4421.936165,1588.834206,-7503.891674
205.320822,2526.820666,1091.127106,-9265.009107
205.323438,-1225.125171,-1225.125171,-9839.286531
205.326053,4460.221326,1148.554848,-8346.165229
205.328669,1895.115499,229.710970,-8863.014910
205.331285,-880.558717,19.142581,-9533.005238
205.333901,3215.953574,1627.119368,-8556.733618
205.336517,1148.554848,229.710970,-9207.581365
205.339133,803.988394,-95.712904,-9054.440718
205.341746,3273.381317,325.423874,-8920.442653
205.344358,1780.260014,114.855485,-9169.296203
205.346971,2679.961312,1971.685822,-8595.018779
205.349583,-995.414202,-1225.125171,-9226.723946
205.352196,2297.109696,114.855485,-8690.731683
205.354808,1014.556782,325.423874,-9552.147819
205.357421,2182.254211,669.990328,-9245.866526
205.360033,995.414202,-267.996131,-8595.018779
205.362645,-1225.125171,344.566454,-9188.438784
205.365258,-2124.826469,1129.412267,-9877.571693
205.367870,3292.523898,229.710970,-8939.585234
205.370483,1837.687757,612.562586,-8882.157491
205.373095,-1531.406464,440.279358,-9226.723946
205.375708,-344.566454,-153.140646,-8958.727814
205.378320,1397.408398,421.136778,-9533.005238
205.380932,1703.689691,-210.568389,-9341.579430
205.383545,2220.539373,957.129040,-8748.159426
205.386157,-1799.402595,803.988394,-9475.577496
205.388770,191.425808,0.000000,-9188.438784
205.391382,2431.107762,650.847747,-8843.872330
205.393995,2794.816797,631.705166,-8652.446522
205.396607,3771.088418,-191.425808,-8173.882002
205.399219,-1435.693560,-842.273555,-9954.142016
205.401832,2603.390989,-1493.121302,-9609.575562
205.404444,172.283227,95.712904,-8652.446522
205.407057,4211.367776,1244.267752,-8288.737486
205.409669,-95.712904,-2909.672282,-9801.001370
205.412282,-2756.531635,-861.416136,-9686.145885
205.414894,2316.252277,1856.830338,-7905.885870
205.417507,1186.840010,823.130974,-8824.729749
205.420119,-1531.406464,689.132909,-9973.284597
205.422731,3024.527766,57.427742,-9437.292334
205.425344,1110.269686,1397.408398,-8575.876198
205.427956,899.701298,1014.556782,-9035.298138
205.430569,-1033.699363,-382.851616,-9590.432981
205.433181,2392.822600,1512.263883,-9073.583299
205.435794,2584.248408,210.568389,-8690.731683
205.438406,-2699.103893,-803.988394,-9475.577496
205.441018,-880.558717,1167.697429,-9073.583299
205.443631,1856.830338,823.130974,-9437.292334
205.446241,4785.645200,861.416136,-8920.442653
205.448850,3254.238736,440.279358,-8633.303941
205.451460,-1378.265818,-19.142581,-8958.727814
205.454070,-2048.256146,976.271621,-9226.723946
205.456680,5742.774240,1033.699363,-9016.155557
205.459290,2545.963246,363.709035,-9016.155557
205.461899,957.129040,1416.550979,-8518.448456
205.464509,-1071.984525,76.570323,-8997.012976
205.467119,2373.680019,-727.418070,-8901.300072
205.469729,2201.396792,918.843878,-9781.858789
205.472338,4651.647134,612.562586,-9169.296203
205.474948,191.425808,421.136778,-8882.157491
205.477558,1914.258080,248.853550,-8901.300072
205.480168,19.142581,-57.427742,-9245.866526
205.482778,2852.244539,248.853550,-9131.011042
205.485387,1971.685822,1531.406464,-8690.731683
205.487997,5053.641331,153.140646,-8307.880067
205.490607,-1684.547110,-957.129040,-9839.286531
205.493217,-95.712904,-2124.826469,-9877.571693
205.495826,3311.666478,1339.980656,-8499.305875
205.498436,4058.227130,1225.125171,-8422.735552
205.501046,-555.134843,-803.988394,-9705.288466
205.503656,-95.712904,-669.990328,-10279.565890
205.506266,2258.824534,-535.992262,-8977.870395
205.508875,3713.660675,1071.984525,-8441.878133
205.511485,-2201.396792,95.712904,-9647.860723
205.514095,612.562586,784.845813,-9092.725880
205.516705,4096.512291,1397.408398,-8575.876198
205.519314,727.418070,593.420005,-9341.579430
205.521924,861.416136,689.132909,-9341.579430
205.524534,3177.668413,765.703232,-8786.444587
205.527144,880.558717,1167.697429,-9111.868461
205.529753,-535.992262,-440.279358,-8901.300072
205.532363,918.843878,459.421939,-9418.149754
205.534973,3790.230998,248.853550,-8843.872330
205.537583,1110.269686,382.851616,-9207.581365
205.540193,-3177.668413,172.283227,-9322.436850
205.542802,1033.699363,0.000000,-8920.442653
205.545412,3081.955509,287.138712,-8939.585234
205.548022,746.560651,382.851616,-9399.007173
205.550628,1359.123237,708.275490,-8614.161360
205.553234,-1167.697429,-421.136778,-9131.011042
205.555840,574.277424,784.845813,-8977.870395
205.558446,3713.660675,976.271621,-9111.868461
205.561052,-325.423874,-612.562586,-9590.432981
205.563659,1091.127106,57.427742,-8958.727814
205.566265,0.000000,440.279358,-9092.725880
205.568871,-478.564520,114.855485,-9226.723946
205.571477,4536.791650,-267.996131,-8193.024582
205.574083,3464.807125,-95.712904,-8920.442653
205.576689,-4996.213589,-1780.260014,-10604.989763
205.579295,3407.379382,555.134843,-8958.727814
205.581901,2737.389054,2239.681954,-8059.026517
205.584508,2067.398726,-114.855485,-8939.585234
205.587114,727.418070,-555.134843,-9016.155557
205.589720,-4019.941968,-287.138712,-9915.856854
205.592326,2756.531635,880.558717,-8441.878133
205.594932,1646.261949,440.279358,-9111.868461
205.597538,-1550.549045,650.847747,-10049.854920
205.600144,3407.379382,210.568389,-8518.448456
205.602750,172.283227,555.134843,-9111.868461
205.605356,-746.560651,459.421939,-9379.864592
205.607963,2182.254211,210.568389,-9073.583299
205.610569,2009.970984,-133.998066,-9092.725880
205.613175,708.275490,-248.853550,-8805.587168
205.615781,-880.558717,708.275490,-9016.155557
205.618387,-2392.822600,899.701298,-9762.716208
205.620993,7618.747158,-344.566454,-8173.882002
205.623599,2718.246474,267.996131,-9743.573627
205.626205,-1225.125171,535.992262,-9418.149754
205.628812,1225.125171,-57.427742,-8346.165229
205.631418,497.707101,-631.705166,-9207.581365
205.634024,4479.363907,2048.256146,-9399.007173
205.636630,3158.525832,-76.570323,-8824.729749
205.639236,497.707101,114.855485,-8824.729749
205.641842,-306.281293,95.712904,-8997.012976
205.644448,2392.822600,1148.554848,-9399.007173
205.647054,4670.789715,1684.547110,-8939.585234
205.649660,2220.539373,-57.427742,-9265.009107
205.652267,-861.416136,440.279358,-9341.579430
205.654870,2277.967115,669.990328,-8843.872330
205.657474,1722.832272,38.285162,-9035.298138
205.660077,2143.969050,593.420005,-8709.874264
205.662680,5245.067139,1071.984525,-8269.594906
205.665283,-861.416136,-1205.982590,-9399.007173
205.667887,-459.421939,-535.992262,-10222.138147
205.670490,1933.400661,421.136778,-8939.585234
205.673093,3981.656806,1990.828403,-8020.741355
205.675696,574.277424,612.562586,-9284.151688
205.678299,19.142581,191.425808,-9590.432981
205.680903,5111.069074,593.420005,-8365.307810
205.683506,574.277424,363.709035,-9111.868461
205.686109,-631.705166,76.570323,-9169.296203
205.688712,3924.229064,1071.984525,-8767.302006
205.691316,2335.394858,229.710970,-9131.011042
205.693919,1378.265818,-57.427742,-9131.011042
205.696522,803.988394,382.851616,-9303.294269
205.699125,2431.107762,918.843878,-8671.589102
205.701729,-689.132909,-38.285162,-8939.585234
205.704332,2048.256146,-19.142581,-8709.874264
205.706935,363.709035,727.418070,-9437.292334
205.709538,3273.381317,1091.127106,-9054.440718
205.712141,-210.568389,19.142581,-9035.298138
205.714745,38.285162,0.000000,-8882.157491
205.717348,-2354.537438,1493.121302,-9915.856854
205.719951,5015.356170,-172.283227,-8518.448456
205.722554,1531.406464,229.710970,-8824.729749
205.725158,-1339.980656,765.703232,-9188.438784
205.727761,-727.418070,210.568389,-8977.870395
205.730364,1052.841944,401.994197,-9686.145885
205.732967,3426.521963,1225.125171,-8939.585234
205.735571,267.996131,267.996131,-9494.720077
205.738174,-899.701298,-57.427742,-9284.151688
205.740777,1512.263883,440.279358,-8652.446522
205.743380,1569.691626,-612.562586,-8843.872330
205.745983,3158.525832,-133.998066,-8843.872330
205.748587,-1914.258080,-191.425808,-8729.016845
205.751190,1607.976787,306.281293,-9858.429112
205.753793,210.568389,-861.416136,-8805.587168
205.756396,2775.674216,-459.421939,-8767.302006
205.758948,-2067.398726,-842.273555,-10068.997501
205.761500,2086.541307,-287.138712,-8575.876198
205.764051,-708.275490,1397.408398,-8997.012976
205.766603,-727.418070,19.142581,-9513.862658
205.769154,1416.550979,210.568389,-9169.296203
205.771706,1703.689691,842.273555,-9207.581365
205.774258,669.990328,708.275490,-8824.729749
205.776809,574.277424,593.420005,-9245.866526
205.779361,-306.281293,957.129040,-9590.432981
205.781912,2890.529701,803.988394,-8805.587168
205.784464,-440.279358,-306.281293,-9111.868461
205.787016,-1741.974853,-248.853550,-9399.007173
205.789567,363.709035,421.136778,-9303.294269
205.792119,6106.483275,803.988394,-8977.870395
205.794670,1684.547110,555.134843,-9360.722011
205.797222,-287.138712,-153.140646,-8901.300072
205.799774,-1205.982590,459.421939,-8863.014910
205.802325,4173.082614,861.416136,-9188.438784
205.804877,5513.063270,1014.556782,-8556.733618
205.807428,-1454.836141,555.134843,-9265.009107
205.809980,-1397.408398,-153.140646,-8958.727814
205.812531,2009.970984,133.998066,-8901.300072
205.815083,2258.824534,1703.689691,-9533.005238
205.817635,3426.521963,880.558717,-8748.159426
205.820186,1856.830338,937.986459,-8958.727814
205.822738,1244.267752,899.701298,-8786.444587
205.825289,382.851616,-1014.556782,-9360.722011
205.827841,1091.127106,478.564520,-9341.579430
205.830393,2909.672282,1588.834206,-7829.315547
205.832944,3388.236802,-746.560651,-9801.001370
205.835496,-2718.246474,-1569.691626,-9724.431046
205.838047,3924.229064,823.130974,-8288.737486
205.840599,4823.930362,880.558717,-8901.300072
205.843151,-2986.242605,-516.849682,-10547.562021
205.845702,4938.785846,880.558717,-8135.596840
205.848254,2871.387120,765.703232,-8575.876198
205.850805,-555.134843,-325.423874,-9533.005238
205.853357,-1493.121302,57.427742,-9322.436850
205.855909,4632.504554,1071.984525,-9303.294269
205.858460,3790.230998,1818.545176,-8537.591037
205.861020,1014.556782,842.273555,-9265.009107
205.863580,1052.841944,1033.699363,-9035.298138
205.866140,2411.965181,727.418070,-8729.016845
205.868700,114.855485,-440.279358,-8977.870395
205.871260,669.990328,574.277424,-9245.866526
205.873820,3464.807125,344.566454,-8958.727814
205.876379,1435.693560,1301.695494,-9265.009107
205.878939,-1397.408398,-823.130974,-9073.583299
205.881499,248.853550,-401.994197,-9188.438784
205.884059,1225.125171,1091.127106,-9284.151688
205.886619,2641.676150,918.843878,-9016.155557
205.889179,1167.697429,459.421939,-8805.587168
205.891739,-2565.105827,-133.998066,-9418.149754
205.894299,1301.695494,612.562586,-8901.300072
205.896858,57.427742,650.847747,-9494.720077
205.899418,2813.959378,267.996131,-8882.157491
205.901978,746.560651,1167.697429,-8901.300072
205.904538,-957.129040,-191.425808,-9284.151688
205.907098,478.564520,-210.568389,-8863.014910
205.909658,1473.978722,1205.982590,-8614.161360
205.912218,7484.749093,172.283227,-7714.460062
205.914778,-3790.230998,-2048.256146,-10126.425243
205.917338,-2737.389054,-784.845813,-10662.417506
205.919897,4651.647134,1895.115499,-7905.885870
205.922457,2890.529701,1588.834206,-8039.883936
205.925017,-4364.508422,-1588.834206,-9801.001370
205.927577,-1895.115499,-1435.693560,-9839.286531
205.930137,5857.629725,2048.256146,-8059.026517
205.932697,-899.701298,-191.425808,-9896.714274
205.935257,-1473.978722,1320.838075,-9303.294269
205.937817,574.277424,727.418070,-9131.011042
205.940376,4594.219392,210.568389,-8614.161360
205.942936,-1550.549045,-1148.554848,-9820.143950
205.945496,689.132909,1167.697429,-8977.870395
205.948056,612.562586,746.560651,-8614.161360
205.950616,-1646.261949,0.000000,-9150.153622
205.953176,1033.699363,-114.855485,-9552.147819
205.955736,5532.205851,1416.550979,-8939.585234
205.958296,2756.531635,-38.285162,-8824.729749
205.960856,-1569.691626,0.000000,-9379.864592
205.963378,-382.851616,191.425808,-9035.298138
205.965901,4479.363907,957.129040,-9169.296203
205.968424,4058.227130,861.416136,-8709.874264
205.970947,440.279358,-133.998066,-8690.731683
205.973469,-1684.547110,57.427742,-9150.153622
205.975992,2679.961312,-38.285162,-8977.870395
205.978515,2450.250342,153.140646,-9475.577496
205.981038,3273.381317,1263.410333,-8901.300072
205.983561,1818.545176,516.849682,-8671.589102
205.986083,-650.847747,-689.132909,-9169.296203
205.988606,-95.712904,363.709035,-9762.716208
205.991129,-1703.689691,1952.543242,-9092.725880
205.993652,6010.770371,3598.805190,-7657.032320
205.996174,727.418070,-267.996131,-9456.434915
205.998697,-440.279358,-1052.841944,-9245.866526
206.001220,5666.203917,382.851616,-8805.587168
206.003743,2833.101958,191.425808,-9150.153622
206.006266,-1091.127106,-976.271621,-10107.282662
206.008788,2890.529701,1799.402595,-8575.876198
206.011311,2718.246474,-153.140646,-8595.018779
206.013834,-2163.111630,-880.558717,-9954.142016
206.016357,-421.136778,-440.279358,-9667.003304
206.018879,4039.084549,1531.406464,-8575.876198
206.021402,1856.830338,823.130974,-9035.298138
206.023925,306.281293,19.142581,-9533.005238
206.026448,2277.967115,803.988394,-8805.587168
206.028971,1167.697429,440.279358,-8690.731683
206.031493,-689.132909,497.707101,-9360.722011
206.034016,2469.392923,478.564520,-9035.298138
206.036539,3541.377448,1397.408398,-8901.300072
206.039062,-2201.396792,-1167.697429,-9188.438784
206.041584,19.142581,287.138712,-9016.155557
206.044107,1607.976787,363.709035,-9609.575562
206.046630,2813.959378,287.138712,-9035.298138
206.049153,459.421939,1129.412267,-8863.014910
206.051676,-1703.689691,-823.130974,-9092.725880
206.054198,172.283227,114.855485,-9188.438784
206.056721,918.843878,1014.556782,-9762.716208
206.059244,2603.390989,267.996131,-8958.727814
206.061767,574.277424,1033.699363,-9131.011042
206.064303,-1914.258080,-19.142581,-9379.864592
206.066839,-229.710970,-57.427742,-9609.575562
206.069376,5302.494882,1512.263883,-8039.883936
206.071912,-210.568389,-1205.982590,-9418.149754
206.074448,344.566454,-1033.699363,-9762.716208
206.076984,-1875.972918,325.423874,-9724.431046
206.079521,4307.080680,1933.400661,-7867.600709
206.082057,-76.570323,937.986459,-9341.579430
206.084593,-2679.961312,-1186.840010,-9628.718142
206.087129,1359.123237,1320.838075,-8767.302006
206.089666,2316.252277,535.992262,-8977.870395
206.092202,-2335.394858,-229.710970,-9877.571693
206.094738,153.140646,267.996131,-9245.866526
206.097275,2775.674216,1091.127106,-8843.872330
206.099811,-440.279358,-593.420005,-9609.575562
206.102347,287.138712,287.138712,-9035.298138
206.104883,325.423874,1416.550979,-8958.727814
206.107420,-669.990328,248.853550,-8958.727814
206.109956,1282.552914,114.855485,-9265.009107
206.112492,2469.392923,1148.554848,-9533.005238
206.115029,4421.936165,229.710970,-8690.731683
206.117565,-765.703232,-516.849682,-9303.294269
206.120101,-1320.838075,478.564520,-9379.864592
206.122637,3388.236802,516.849682,-9284.151688
206.125174,3579.662610,1320.838075,-8843.872330
206.127710,995.414202,880.558717,-8575.876198
206.130246,-3369.094221,-803.988394,-9456.434915
206.132783,1895.115499,1531.406464,-8997.012976
206.135319,4326.223261,1378.265818,-8805.587168
206.137855,3235.096155,765.703232,-9054.440718
206.140391,229.710970,-95.712904,-9322.436850
206.142928,1454.836141,344.566454,-8652.446522
206.145475,3120.240670,-191.425808,-9016.155557
206.148023,6374.479406,574.277424,-7982.456194
206.150571,-2316.252277,-401.994197,-9399.007173
206.153118,-382.851616,-842.273555,-9609.575562
206.155666,7101.897477,-172.283227,-8135.596840
206.158213,497.707101,-708.275490,-9858.429112
206.160761,-1627.119368,-555.134843,-9954.142016
206.163309,5264.209720,1799.402595,-8116.454259
206.165856,2833.101958,937.986459,-8767.302006
206.168404,-2335.394858,-478.564520,-9686.145885
206.170952,1818.545176,976.271621,-8748.159426
206.173499,4345.365842,2239.681954,-8729.016845
206.176047,3483.949706,574.277424,-8767.302006
206.178594,1014.556782,593.420005,-9245.866526
206.181142,1244.267752,1110.269686,-9054.440718
206.183690,-516.849682,-746.560651,-8786.444587
206.186237,1473.978722,287.138712,-8843.872330
206.188785,1569.691626,727.418070,-9801.001370
206.191333,2316.252277,918.843878,-8882.157491
206.193880,-267.996131,823.130974,-8901.300072
206.196428,-1799.402595,-650.847747,-9322.436850
206.198975,-555.134843,957.129040,-9456.434915
206.201523,4555.934230,1225.125171,-8882.157491
206.204071,478.564520,248.853550,-8843.872330
206.206618,-1780.260014,1167.697429,-9054.440718
206.209166,-267.996131,57.427742,-9111.868461
206.211714,3235.096155,-76.570323,-8824.729749
206.214261,1684.547110,612.562586,-9437.292334
206.216809,-1091.127106,-689.132909,-9533.005238
206.219357,1301.695494,516.849682,-8824.729749
206.221904,-325.423874,1014.556782,-9475.577496
206.224452,-2947.957443,287.138712,-9839.286531
206.226999,-2124.826469,1741.974853,-9188.438784
206.229547,2833.101958,2813.959378,-8039.883936
206.232095,7771.887805,574.277424,-8193.024582
206.234642,-4670.789715,-2928.814862,-10911.271056
206.237190,-1033.699363,-57.427742,-9035.298138
206.239738,4517.649069,2431.107762,-7657.032320
206.242285,-3081.955509,-708.275490,-10164.710405
206.244833,861.416136,38.285162,-8997.012976
206.247352,3924.229064,842.273555,-8537.591037
206.249871,-899.701298,-516.849682,-9590.432981
206.252389,-574.277424,-153.140646,-9686.145885
206.254908,2928.814862,421.136778,-8939.585234
206.257427,2029.113565,-133.998066,-8709.874264
206.259946,-2009.970984,95.712904,-9131.011042
206.262465,-1186.840010,-344.566454,-9513.862658
206.264984,4594.219392,363.709035,-8767.302006
206.267503,2507.678085,1205.982590,-9609.575562
206.270021,918.843878,478.564520,-8882.157491
206.272540,133.998066,57.427742,-8633.303941
206.275059,-248.853550,1205.982590,-9226.723946
206.277578,4862.215523,535.992262,-9054.440718
206.280097,1895.115499,0.000000,-8882.157491
206.282616,344.566454,344.566454,-8614.161360
206.285135,-612.562586,172.283227,-8824.729749
206.287653,3675.375514,0.000000,-8997.012976
206.290172,1320.838075,95.712904,-9667.003304
206.292691,3177.668413,899.701298,-8556.733618
206.295210,1359.123237,1263.410333,-8939.585234
206.297729,-1627.119368,153.140646,-9820.143950
206.300248,-76.570323,1416.550979,-8958.727814
206.302767,7369.893608,2584.248408,-7657.032320
206.305285,-689.132909,-535.992262,-9169.296203
206.307804,3560.520029,689.132909,-8499.305875
206.310323,2182.254211,-306.281293,-9513.862658
206.312842,1588.834206,-1282.552914,-9513.862658
206.315361,1952.543242,574.277424,-8729.016845
206.317880,3101.098090,401.994197,-8595.018779
206.320399,-803.988394,-1263.410333,-9245.866526
206.322917,1091.127106,478.564520,-9379.864592
206.325436,2660.818731,1301.695494,-8882.157491
206.327955,3101.098090,497.707101,-8595.018779
206.330474,287.138712,1091.127106,-9303.294269
206.332993,1091.127106,516.849682,-9054.440718
206.335512,842.273555,-325.423874,-8843.872330
206.338031,1129.412267,1378.265818,-9016.155557
206.340549,2086.541307,57.427742,-9188.438784
206.343068,248.853550,861.416136,-9494.720077
206.345587,-689.132909,229.710970,-8748.159426
206.348120,229.710970,421.136778,-8805.587168
206.350653,-1416.550979,880.558717,-9877.571693
206.353187,4938.785846,325.423874,-8671.589102
206.355720,421.136778,440.279358,-9169.296203
206.358253,-1359.123237,153.140646,-9303.294269
206.360786,-57.427742,363.709035,-8958.727814
206.363319,1952.543242,344.566454,-9054.440718
206.365852,2967.100024,459.421939,-9418.149754
206.368385,-1722.832272,19.142581,-9781.858789
206.370918,-229.710970,842.273555,-9016.155557
206.373451,1761.117434,746.560651,-8786.444587
206.375985,-2890.529701,133.998066,-9781.858789
206.378518,2143.969050,1014.556782,-8920.442653
206.381051,3522.234867,1071.984525,-8595.018779
206.383584,-3675.375514,535.992262,-9934.999435
206.386117,-1186.840010,0.000000,-9839.286531
206.388650,2469.392923,153.140646,-8384.450390
206.391183,-191.425808,918.843878,-9207.581365
206.393716,-2450.250342,344.566454,-9762.716208
206.396249,3598.805190,842.273555,-8461.020714
206.398783,1665.404530,861.416136,-9341.579430
206.401316,-344.566454,-669.990328,-9418.149754
206.403849,689.132909,-459.421939,-9265.009107
206.406382,1799.402595,650.847747,-8997.012976
206.408915,-1033.699363,210.568389,-9456.434915
206.411448,-2086.541307,344.566454,-9686.145885
206.413981,2641.676150,38.285162,-8824.729749
206.416514,2737.389054,937.986459,-9303.294269
206.419048,2469.392923,708.275490,-8939.585234
206.421581,-880.558717,95.712904,-9054.440718
206.424114,727.418070,440.279358,-8939.585234
206.426647,2182.254211,880.558717,-9341.579430
206.429180,4766.502619,574.277424,-8633.303941
206.431713,899.701298,976.271621,-8748.159426
206.434246,-3101.098090,-899.701298,-9552.147819
206.436779,1952.543242,976.271621,-8863.014910
206.439312,4575.076811,861.416136,-8843.872330
206.441846,3656.232933,650.847747,-8709.874264
206.444379,-1493.121302,-287.138712,-9437.292334
206.446912,880.558717,210.568389,-9111.868461
206.449457,2603.390989,1167.697429,-8346.165229
206.452002,6297.909083,-19.142581,-8422.735552
206.454547,-95.712904,-2890.529701,-10049.854920
206.457092,-7925.028451,-976.271621,-10662.417506
206.459638,7618.747158,5321.637462,-7255.038123
206.462183,3981.656806,2239.681954,-8863.014910
206.464728,-1435.693560,172.283227,-8843.872330
206.467273,-3541.377448,-382.851616,-9858.429112
206.469818,4287.938099,1703.689691,-8135.596840
206.472363,2718.246474,-401.994197,-8920.442653
206.474908,114.855485,-38.285162,-9973.284597
206.477453,3943.371645,1205.982590,-8556.733618
206.479999,1799.402595,1588.834206,-8843.872330
206.482544,-1167.697429,-995.414202,-9533.005238
206.485089,1895.115499,133.998066,-8652.446522
206.487634,2852.244539,1550.549045,-8805.587168
206.490179,3407.379382,306.281293,-8958.727814
206.492724,-842.273555,516.849682,-9303.294269
206.495269,-2909.672282,-95.712904,-9379.864592
206.497815,2411.965181,861.416136,-8786.444587
206.500360,2603.390989,0.000000,-9322.436850
206.502905,727.418070,784.845813,-9571.290400
206.505450,899.701298,612.562586,-8480.163294
206.507995,-1703.689691,-593.420005,-9303.294269
206.510540,440.279358,957.129040,-9303.294269
206.513085,1148.554848,784.845813,-9399.007173
206.515631,3771.088418,612.562586,-9054.440718
206.518176,-516.849682,19.142581,-9475.577496
206.520721,-2067.398726,-937.986459,-9801.001370
206.523266,2986.242605,2277.967115,-8135.596840
206.525811,2679.961312,325.423874,-8748.159426
206.528356,229.710970,-765.703232,-9686.145885
206.530901,-2622.533570,-1569.691626,-10145.567824
206.533446,2029.113565,1569.691626,-8441.878133
206.535992,2163.111630,2163.111630,-8729.016845
206.538537,-1627.119368,-172.283227,-9456.434915
206.541082,-1512.263883,669.990328,-9265.009107
206.543627,4211.367776,1627.119368,-8461.020714
206.546172,2756.531635,153.140646,-8805.587168
206.548717,-1397.408398,-344.566454,-9686.145885
206.551272,1818.545176,516.849682,-8824.729749
206.553827,1895.115499,325.423874,-8863.014910
206.556382,-2871.387120,267.996131,-9456.434915
206.558937,555.134843,918.843878,-9035.298138
206.561493,2871.387120,229.710970,-8805.587168
206.564048,1454.836141,401.994197,-9896.714274
206.566603,3081.955509,784.845813,-8652.446522
206.569158,363.709035,-708.275490,-8729.016845
206.571713,306.281293,-248.853550,-9303.294269
206.574268,4843.072942,1110.269686,-8977.870395
206.576823,2067.398726,-95.712904,-9035.298138
206.579378,1263.410333,631.705166,-8575.876198
206.581933,-1320.838075,-842.273555,-9035.298138
206.584488,1339.980656,382.851616,-9418.149754
206.587043,4249.652938,1512.263883,-8958.727814
206.589598,4402.793584,1033.699363,-8671.589102
206.592153,-2718.246474,-401.994197,-10164.710405
206.594708,-535.992262,459.421939,-9188.438784
206.597263,-1052.841944,1684.547110,-8824.729749
206.599818,8193.024582,3866.801322,-8020.741355
206.602373,-3235.096155,-1014.556782,-9284.151688
206.604928,1780.260014,555.134843,-9456.434915
206.607483,6183.053598,1550.549045,-8231.309744
206.610038,-229.710970,-1607.976787,-10068.997501
206.612593,1569.691626,1225.125171,-8901.300072
206.615148,2641.676150,95.712904,-8748.159426
206.617704,1837.687757,229.710970,-8901.300072
206.620259,-1684.547110,-191.425808,-9896.714274
206.622814,4632.504554,2277.967115,-8556.733618
206.625369,3215.953574,1914.258080,-8652.446522
206.627924,746.560651,38.285162,-8977.870395
206.630479,440.279358,-459.421939,-8882.157491
206.633034,2813.959378,1512.263883,-8786.444587
206.635589,3522.234867,-478.564520,-9131.011042
206.638144,-516.849682,631.705166,-9341.579430
206.640699,-1588.834206,-153.140646,-8997.012976
206.643254,1837.687757,-478.564520,-8901.300072
206.645809,-459.421939,1129.412267,-9762.716208
206.648364,4096.512291,650.847747,-9111.868461
206.650919,153.140646,-19.142581,-8824.729749
206.653449,-1588.834206,-57.427742,-9322.436850
206.655979,229.710970,210.568389,-8939.585234
206.658509,2431.107762,535.992262,-9226.723946
206.661039,823.130974,-114.855485,-9590.432981
206.663569,229.710970,957.129040,-8997.012976
206.666099,2086.541307,210.568389,-8365.307810
206.668629,4096.512291,-708.275490,-8805.587168
206.671159,-1895.115499,-1856.830338,-9705.288466
206.673689,937.986459,-995.414202,-8997.012976
206.676219,2813.959378,1320.838075,-8805.587168
206.678749,153.140646,-1071.984525,-9226.723946
206.681279,-2928.814862,-803.988394,-9533.005238
206.683809,1320.838075,842.273555,-8729.016845
206.686339,2124.826469,612.562586,-8709.874264
206.688869,-1837.687757,-363.709035,-10068.997501
206.691399,1684.547110,76.570323,-9035.298138
206.693929,2277.967115,995.414202,-8748.159426
206.696458,-172.283227,612.562586,-9360.722011
206.698988,-382.851616,287.138712,-9226.723946
206.701518,363.709035,1052.841944,-8901.300072
206.704048,-229.710970,210.568389,-9494.720077
206.706578,4728.217458,229.710970,-8767.302006
206.709108,3847.658741,497.707101,-9092.725880
206.711638,-784.845813,-172.283227,-9437.292334
206.714168,-57.427742,612.562586,-8384.450390
206.716698,2258.824534,-401.994197,-9322.436850
206.719228,3981.656806,1301.695494,-9131.011042
206.721758,1646.261949,210.568389,-8863.014910
206.724288,2258.824534,650.847747,-8422.735552
206.726818,-1627.119368,-1205.982590,-9188.438784
206.729348,2565.105827,382.851616,-9265.009107
206.731878,2048.256146,-325.423874,-9360.722011
206.734408,4977.071008,1339.980656,-8154.739421
206.736938,-363.709035,-363.709035,-9303.294269
206.739468,4096.512291,-669.990328,-9073.583299
206.741998,-746.560651,-880.558717,-9379.864592
206.744528,-325.423874,306.281293,-9169.296203
206.747057,6489.334891,459.421939,-8307.880067
206.749587,153.140646,-937.986459,-10011.569758
206.752117,421.136778,-765.703232,-9379.864592
206.754660,2622.533570,631.705166,-8805.587168
206.757202,4134.797453,1091.127106,-8518.448456
206.759744,76.570323,-153.140646,-9111.868461
206.762286,-210.568389,-210.568389,-9418.149754
206.764828,3273.381317,1416.550979,-8958.727814
206.767370,3464.807125,1550.549045,-8595.018779
206.769913,803.988394,478.564520,-9226.723946
206.772455,-1473.978722,631.705166,-9016.155557
206.774997,3330.809059,38.285162,-8346.165229
206.777539,2794.816797,440.279358,-9456.434915
206.780081,-210.568389,574.277424,-9628.718142
206.782623,114.855485,-937.986459,-8939.585234
206.785166,1990.828403,-421.136778,-9035.298138
206.787708,-421.136778,1167.697429,-9724.431046
206.790250,3369.094221,746.560651,-9092.725880
206.792792,1416.550979,497.707101,-8690.731683
206.795334,-1952.543242,-631.705166,-9188.438784
206.797876,-803.988394,133.998066,-9016.155557
206.800419,2488.535504,669.990328,-9226.723946
206.802961,-114.855485,-325.423874,-9552.147819
206.805503,3158.525832,1512.263883,-8633.303941
206.808045,-593.420005,-861.416136,-9073.583299
206.810587,3962.514226,1550.549045,-7886.743290
206.813129,957.129040,516.849682,-9169.296203
206.815672,-2411.965181,-1665.404530,-10241.280728
206.818214,2411.965181,612.562586,-8671.589102
206.820756,2775.674216,1205.982590,-8518.448456
206.823298,-2986.242605,-727.418070,-9628.718142
206.825840,-1627.119368,95.712904,-9820.143950
206.828382,3924.229064,995.414202,-8365.307810
206.830925,765.703232,421.136778,-9245.866526
206.833467,363.709035,937.986459,-9341.579430
206.836009,1856.830338,-555.134843,-8805.587168
206.838551,1148.554848,-248.853550,-9303.294269
206.841093,-1703.689691,248.853550,-9418.149754
206.843636,76.570323,210.568389,-9016.155557
206.846178,2354.537438,976.271621,-9092.725880
206.848720,1378.265818,650.847747,-9781.858789
206.851262,3656.232933,957.129040,-8537.591037
206.853804,210.568389,-248.853550,-8863.014910
206.856326,-1933.400661,-153.140646,-9494.720077
206.858847,4689.932296,689.132909,-8786.444587
206.861369,3962.514226,306.281293,-9265.009107
206.863890,229.710970,-133.998066,-8767.302006
206.866411,-1741.974853,76.570323,-9360.722011
206.868933,3694.518094,1569.691626,-8767.302006
206.871454,3847.658741,612.562586,-9035.298138
206.873976,401.994197,38.285162,-9475.577496
206.876497,2545.963246,842.273555,-8327.022648
206.879019,-1378.265818,-248.853550,-9628.718142
206.881540,1990.828403,1244.267752,-9092.725880
206.884062,382.851616,727.418070,-8614.161360
206.886583,4077.369710,1071.984525,-9035.298138
206.889105,-2526.820666,-1741.974853,-10470.991698
206.891626,1512.263883,-650.847747,-8901.300072
206.894148,4019.941968,1741.974853,-8748.159426
206.896669,1435.693560,-574.277424,-9169.296203
206.899191,535.992262,650.847747,-8977.870395
206.901712,2431.107762,95.712904,-8997.012976
206.904233,1282.552914,-784.845813,-9341.579430
206.906755,2679.961312,2297.109696,-8729.016845
206.909276,918.843878,306.281293,-9073.583299
206.911798,1263.410333,248.853550,-8633.303941
206.914319,1110.269686,287.138712,-9035.298138
206.916841,3943.371645,344.566454,-9073.583299
206.919362,-401.994197,210.568389,-9245.866526
206.921884,-1799.402595,-708.275490,-9150.153622
206.924405,650.847747,-746.560651,-9265.009107
206.926927,1780.260014,1588.834206,-9169.296203
206.929448,2488.535504,784.845813,-9475.577496
206.931970,-172.283227,-612.562586,-8977.870395
206.934491,-421.136778,-57.427742,-8997.012976
206.937012,-727.418070,516.849682,-9533.005238
206.939534,1588.834206,153.140646,-9131.011042
206.942055,-325.423874,516.849682,-9628.718142
206.944577,1569.691626,1091.127106,-9073.583299
206.947098,-3254.238736,478.564520,-9915.856854
206.949620,-133.998066,2239.681954,-8652.446522
206.952141,3426.521963,1875.972918,-8250.452325
206.954663,535.992262,-823.130974,-9934.999435
206.957198,-3196.810994,248.853550,-9437.292334
206.959733,4039.084549,2794.816797,-7982.456194
206.962269,-1167.697429,1167.697429,-9284.151688
206.964804,-1952.543242,248.853550,-10222.138147
206.967339,3349.951640,631.705166,-8767.302006
206.969875,3905.086483,229.710970,-8575.876198
206.972410,-2411.965181,-440.279358,-9686.145885
206.974946,1091.127106,823.130974,-8958.727814
206.977481,593.420005,-689.132909,-8901.300072
206.980016,248.853550,880.558717,-9188.438784
206.982552,-1071.984525,-57.427742,-9552.147819
206.985087,3809.373579,669.990328,-9150.153622
206.987622,4785.645200,784.845813,-8786.444587
206.990158,-631.705166,-38.285162,-9207.581365
206.992693,-363.709035,937.986459,-8690.731683
206.995229,4689.932296,-57.427742,-8729.016845
206.997764,4268.795518,957.129040,-9150.153622
207.000299,-478.564520,-114.855485,-9437.292334
207.002835,1971.685822,-153.140646,-8250.452325
207.005370,1741.974853,689.132909,-8882.157491
207.007905,1435.693560,-535.992262,-9839.286531
207.010441,3828.516160,516.849682,-9035.298138
207.012976,478.564520,1359.123237,-9341.579430
207.015511,-957.129040,861.416136,-9207.581365
207.018047,3503.092286,1914.258080,-8461.020714
207.020582,612.562586,669.990328,-8652.446522
207.023118,4709.074877,1205.982590,-8709.874264
207.025653,-306.281293,57.427742,-9992.427178
207.028188,1167.697429,267.996131,-9379.864592
207.030724,5359.922624,708.275490,-8154.739421
207.033259,-593.420005,-382.851616,-9475.577496
207.035794,3120.240670,976.271621,-8422.735552
207.038330,1875.972918,-306.281293,-9111.868461
207.040865,1320.838075,-708.275490,-9379.864592
207.043400,1837.687757,1110.269686,-8901.300072
207.045936,2909.672282,325.423874,-8958.727814
207.048471,382.851616,-344.566454,-8767.302006
207.051007,1129.412267,957.129040,-9207.581365
207.053542,3081.955509,459.421939,-9016.155557
207.056077,784.845813,133.998066,-8997.012976
207.058624,-3005.385186,-746.560651,-9150.153622
207.061172,1914.258080,421.136778,-8863.014910
207.063719,1244.267752,976.271621,-9322.436850
207.066266,2679.961312,650.847747,-9303.294269
207.068813,-803.988394,325.423874,-8977.870395
207.071360,344.566454,153.140646,-8767.302006
207.073908,-823.130974,191.425808,-9035.298138
207.076455,2316.252277,784.845813,-9360.722011
207.079002,-344.566454,57.427742,-9360.722011
207.081549,3388.236802,344.566454,-8422.735552
207.084096,3330.809059,-976.271621,-9073.583299
207.086644,-4996.213589,-2086.541307,-10413.563955
207.089191,1454.836141,1837.687757,-8422.735552
207.091738,7159.325219,574.277424,-8001.598774
207.094285,-4039.084549,-2297.109696,-10432.706536
207.096832,-2048.256146,-1014.556782,-9111.868461
207.099380,3962.514226,-114.855485,-9016.155557
207.101927,3215.953574,1167.697429,-8920.442653
207.104474,-2105.683888,-38.285162,-9762.716208
207.107021,1512.263883,1741.974853,-8614.161360
207.109568,1856.830338,19.142581,-8863.014910
207.112116,-669.990328,-1435.693560,-9456.434915
207.114663,-2239.681954,2086.541307,-9437.292334
207.117210,2928.814862,172.283227,-8805.587168
207.119757,1818.545176,95.712904,-9092.725880
207.122304,1148.554848,1205.982590,-9992.427178
207.124851,3235.096155,344.566454,-8595.018779
207.127399,267.996131,1588.834206,-8518.448456
207.129946,689.132909,-382.851616,-9188.438784
207.132493,2890.529701,459.421939,-9245.866526
207.135040,3656.232933,516.849682,-8824.729749
207.137587,421.136778,191.425808,-8901.300072
207.140135,-1952.543242,-114.855485,-9475.577496
207.142682,3464.807125,1971.685822,-8595.018779
207.145229,4153.940034,784.845813,-9016.155557
207.147776,593.420005,-401.994197,-9571.290400
207.150323,-1952.543242,1512.263883,-9322.436850
207.152871,5704.489078,2392.822600,-7848.458128
207.155418,861.416136,1512.263883,-8480.163294
207.157965,2450.250342,727.418070,-9647.860723
207.160521,-842.273555,976.271621,-9226.723946
207.163078,3426.521963,2048.256146,-8843.872330
207.165634,4230.510357,842.273555,-8958.727814
207.168190,-593.420005,-19.142581,-9513.862658
207.170746,3503.092286,1320.838075,-8499.305875
207.173303,1856.830338,-1167.697429,-8939.585234
207.175859,1799.402595,-76.570323,-9226.723946
207.178415,937.986459,937.986459,-9418.149754
207.180971,2009.970984,-899.701298,-8805.587168
207.183528,1244.267752,267.996131,-8729.016845
207.186084,-708.275490,823.130974,-9839.286531
207.188640,3885.943902,708.275490,-8595.018779
207.191196,765.703232,861.416136,-9073.583299
207.193753,-2794.816797,-478.564520,-9437.292334
207.196309,593.420005,153.140646,-9111.868461
207.198865,2947.957443,1339.980656,-9303.294269
207.201421,1110.269686,287.138712,-9379.864592
207.203978,-631.705166,669.990328,-8939.585234
207.206534,-76.570323,-114.855485,-8786.444587
207.209090,669.990328,133.998066,-8843.872330
207.211646,1895.115499,1167.697429,-9322.436850
207.214203,344.566454,-516.849682,-9590.432981
207.216759,-1186.840010,229.710970,-9590.432981
207.219315,2775.674216,1473.978722,-8307.880067
207.221871,2258.824534,421.136778,-8767.302006
207.224428,-1761.117434,-976.271621,-9724.431046
207.226984,2641.676150,-153.140646,-8863.014910
207.229540,1531.406464,401.994197,-8595.018779
207.232096,-3235.096155,-689.132909,-9686.145885
207.234653,-689.132909,267.996131,-9973.284597
207.237209,2411.965181,823.130974,-8767.302006
207.239765,3292.523898,210.568389,-8786.444587
207.242321,-1531.406464,-593.420005,-9418.149754
207.244878,-19.142581,248.853550,-9341.579430
207.247434,440.279358,1167.697429,-8843.872330
207.249990,-153.140646,19.142581,-9073.583299
207.252547,957.129040,344.566454,-9226.723946
207.255103,4039.084549,1359.123237,-9360.722011
207.257659,4192.225195,-325.423874,-8729.016845
207.260215,-1244.267752,-248.853550,-9418.149754
207.262779,-1014.556782,248.853550,-9054.440718
207.265344,4881.358104,555.134843,-8748.159426
207.267908,3445.664544,1225.125171,-9169.296203
207.270472,612.562586,267.996131,-8939.585234
207.273036,440.279358,-478.564520,-8595.018779
207.275601,3081.955509,1033.699363,-8805.587168
207.278165,1550.549045,-248.853550,-9494.720077
207.280729,2890.529701,765.703232,-9073.583299
207.283293,19.142581,1167.697429,-9054.440718
207.285857,3885.943902,995.414202,-7408.178770
207.288422,9245.866526,1837.687757,-8537.591037
207.290986,-3637.090352,-2526.820666,-10662.417506
207.293550,-1665.404530,842.273555,-8901.300072
207.296114,8499.305875,2584.248408,-7580.461997
207.298678,-555.134843,-2833.101958,-10088.140082
207.301243,1378.265818,727.418070,-9207.581365
207.303807,3062.812928,1244.267752,-8365.307810
207.306371,1799.402595,-38.285162,-8748.159426
207.308935,-57.427742,593.420005,-9762.716208
207.311499,4766.502619,2354.537438,-8403.592971
207.314064,1167.697429,784.845813,-8805.587168
207.316628,-689.132909,0.000000,-9284.151688
207.319192,153.140646,650.847747,-9322.436850
207.321756,5436.492947,1722.832272,-8250.452325
207.324320,-1339.980656,1263.410333,-9571.290400
207.326885,-3005.385186,-1071.984525,-8901.300072
207.329449,2067.398726,669.990328,-8843.872330
207.332013,2469.392923,1014.556782,-9456.434915
207.334577,1493.121302,229.710970,-9284.151688
207.337141,-248.853550,95.712904,-8901.300072
207.339706,-95.712904,95.712904,-8977.870395
207.342270,248.853550,306.281293,-9265.009107
207.344813,1110.269686,1129.412267,-9667.003304
207.347357,2737.389054,191.425808,-8518.448456
207.349900,-631.705166,-248.853550,-9456.434915
207.352444,-3924.229064,153.140646,-10049.854920
207.354987,4019.941968,1780.260014,-8518.448456
207.357531,-1014.556782,1837.687757,-9207.581365
207.360075,459.421939,1205.982590,-8269.594906
207.362618,708.275490,1071.984525,-9073.583299
207.365162,-1550.549045,-555.134843,-9801.001370
207.367705,1129.412267,229.710970,-9188.438784
207.370249,1588.834206,306.281293,-9188.438784
207.372792,-1033.699363,1569.691626,-9552.147819
207.375336,1971.685822,1052.841944,-8441.878133
207.377879,937.986459,-1263.410333,-8997.012976
207.380423,-1263.410333,899.701298,-9284.151688
207.382966,-1531.406464,899.701298,-9647.860723
207.385510,5283.352301,-421.136778,-8614.161360
207.388053,2603.390989,1205.982590,-9801.001370
207.390597,1282.552914,746.560651,-8939.585234
207.393140,-784.845813,191.425808,-8920.442653
207.395684,2718.246474,-172.283227,-8748.159426
207.398227,3732.803256,957.129040,-9265.009107
207.400771,2890.529701,612.562586,-8958.727814
207.403314,593.420005,-306.281293,-8690.731683
207.405858,-1473.978722,-746.560651,-9475.577496
207.408401,2660.818731,1531.406464,-9188.438784
207.410945,5934.200048,823.130974,-8518.448456
207.413488,-57.427742,0.000000,-9781.858789
207.416032,1225.125171,38.285162,-8193.024582
207.418575,4058.227130,-1225.125171,-8977.870395
207.421119,4517.649069,-1301.695494,-8403.592971
207.423662,-1397.408398,-3177.668413,-10145.567824
207.426206,421.136778,-784.845813,-9628.718142
207.428749,5513.063270,2143.969050,-8652.446522
207.431293,3637.090352,1301.695494,-8671.589102
207.433836,-3081.955509,-38.285162,-9762.716208
207.436380,4651.647134,1205.982590,-8346.165229
207.438923,2852.244539,-210.568389,-8920.442653
207.441467,823.130974,555.134843,-9590.432981
207.444010,459.421939,440.279358,-8843.872330
207.446564,2890.529701,1167.697429,-8575.876198
207.449117,899.701298,1569.691626,-9303.294269
207.451670,3771.088418,401.994197,-8882.157491
207.454223,-612.562586,172.283227,-9016.155557
207.456776,-2392.822600,-267.996131,-9341.579430
207.459329,-38.285162,478.564520,-9169.296203
207.461882,3656.232933,535.992262,-9245.866526
207.464435,1607.976787,880.558717,-9169.296203
207.466989,-1531.406464,-38.285162,-9073.583299
207.469542,708.275490,363.709035,-8518.448456
207.472095,-727.418070,229.710970,-9456.434915
207.474648,784.845813,1110.269686,-9571.290400
207.477201,2450.250342,-459.421939,-8997.012976
207.479754,2756.531635,-248.853550,-8422.735552
207.482307,-1148.554848,-803.988394,-9724.431046
207.484861,2967.100024,-344.566454,-9226.723946
207.487414,-3196.810994,650.847747,-9513.862658
207.489967,2086.541307,1780.260014,-8154.739421
207.492520,516.849682,669.990328,-9418.149754
207.495073,-1856.830338,-784.845813,-9686.145885
207.497626,2660.818731,1205.982590,-8767.302006
207.500179,1301.695494,-172.283227,-8652.446522
207.502732,-267.996131,-516.849682,-9552.147819
207.505286,306.281293,114.855485,-9303.294269
207.507839,0.000000,995.414202,-8767.302006
207.510392,-210.568389,-803.988394,-9073.583299
207.512945,535.992262,363.709035,-9456.434915
207.515498,3196.810994,440.279358,-9399.007173
207.518051,5532.205851,689.132909,-8786.444587
207.520604,-1091.127106,-880.558717,-9073.583299
207.523157,-1148.554848,95.712904,-8920.442653
207.525711,3541.377448,861.416136,-8997.012976
207.528264,4326.223261,1703.689691,-8920.442653
207.530817,784.845813,516.849682,-9035.298138
207.533370,1071.984525,-114.855485,-8748.159426
207.535923,440.279358,-363.709035,-9073.583299
207.538476,2833.101958,1684.547110,-9226.723946
207.541029,4383.651003,708.275490,-8346.165229
207.543582,1550.549045,19.142581,-8939.585234
207.546136,1703.689691,-1014.556782,-9303.294269
207.548696,-708.275490,-746.560651,-9686.145885
207.551258,1493.121302,2411.965181,-8212.167163
207.553819,5934.200048,3292.523898,-7982.456194
207.556381,3771.088418,1359.123237,-9073.583299
207.558942,-765.703232,-650.847747,-10279.565890
207.561504,1588.834206,497.707101,-8767.302006
207.564065,4096.512291,478.564520,-8269.594906
207.566627,-57.427742,1110.269686,-9571.290400
207.569188,1416.550979,995.414202,-9016.155557
207.571749,3330.809059,555.134843,-8556.733618
207.574311,842.273555,-210.568389,-8920.442653
207.576872,-172.283227,-210.568389,-9437.292334
207.579434,4039.084549,440.279358,-8977.870395
207.581995,172.283227,727.418070,-9226.723946
207.584557,-3043.670347,-1225.125171,-8977.870395
207.587118,1895.115499,344.566454,-8901.300072
207.589680,1971.685822,1378.265818,-9456.434915
207.592241,2258.824534,-191.425808,-9399.007173
207.594803,-57.427742,229.710970,-8786.444587
207.597364,306.281293,153.140646,-8843.872330
207.599926,-2373.680019,-344.566454,-9513.862658
207.602487,2450.250342,229.710970,-9016.155557
207.605048,2986.242605,650.847747,-8997.012976
207.607610,995.414202,1225.125171,-8843.872330
207.610171,7561.319416,248.853550,-7408.178770
207.612733,-3407.379382,-3445.664544,-11006.983960
207.615294,-3158.525832,669.990328,-9341.579430
207.617856,7159.325219,3809.373579,-6948.756830
207.620417,-1512.263883,784.845813,-9686.145885
207.622979,-4594.219392,-1091.127106,-10566.704602
207.625540,5187.639397,1014.556782,-8269.594906
207.628102,1627.119368,803.988394,-9245.866526
207.630663,-1818.545176,-918.843878,-9781.858789
207.633225,-957.129040,229.710970,-9188.438784
207.635786,1646.261949,1493.121302,-8652.446522
207.638348,-1646.261949,191.425808,-9379.864592
207.640909,344.566454,-937.986459,-9475.577496
207.643470,3751.945837,2316.252277,-9379.864592
207.646032,4555.934230,861.416136,-8441.878133
207.648593,-1722.832272,-555.134843,-9188.438784
207.651161,-574.277424,535.992262,-8786.444587
207.653729,3675.375514,-325.423874,-9150.153622
207.656297,3751.945837,267.996131,-9169.296203
207.658865,1952.543242,1397.408398,-8690.731683
207.661432,401.994197,267.996131,-8882.157491
207.664000,3369.094221,1110.269686,-8518.448456
207.666568,1550.549045,-593.420005,-9686.145885
207.669136,3081.955509,325.423874,-8652.446522
207.671704,-1435.693560,363.709035,-9762.716208
207.674272,497.707101,401.994197,-8805.587168
207.676839,1569.691626,1914.258080,-9284.151688
207.679407,631.705166,1110.269686,-8977.870395
207.681975,3407.379382,2105.683888,-8633.303941
207.684543,478.564520,-229.710970,-9647.860723
207.687111,4517.649069,1033.699363,-8480.163294
207.689678,3790.230998,1952.543242,-8441.878133
207.692246,-535.992262,-401.994197,-9533.005238
207.694814,1301.695494,-248.853550,-8958.727814
207.697382,4383.651003,1454.836141,-8480.163294
207.699950,-1205.982590,-516.849682,-9341.579430
207.702518,1033.699363,-57.427742,-8997.012976
207.705085,2335.394858,1129.412267,-9207.581365
207.707653,2086.541307,229.710970,-9188.438784
207.710221,-1339.980656,382.851616,-8882.157491
207.712789,-1359.123237,842.273555,-9494.720077
207.715357,382.851616,842.273555,-9284.151688
207.717924,3943.371645,-153.140646,-9188.438784
207.720492,459.421939,76.570323,-8920.442653
207.723060,-1033.699363,593.420005,-9035.298138
207.725628,-1665.404530,-976.271621,-9322.436850
207.728196,2947.957443,-325.423874,-8824.729749
207.730763,823.130974,880.558717,-9858.429112
207.733331,-497.707101,650.847747,-9552.147819
207.735899,6872.186507,0.000000,-7523.034254
207.738467,-1741.974853,-2469.392923,-9226.723946
207.741035,574.277424,-2794.816797,-9303.294269
207.743603,-4153.940034,-2947.957443,-10336.993632
207.746170,-1263.410333,421.136778,-8882.157491
207.748738,2852.244539,1703.689691,-8020.741355
207.751306,-1761.117434,172.283227,-10164.710405
207.753879,2431.107762,918.843878,-8997.012976
207.756452,3847.658741,19.142581,-8614.161360
207.759025,-1531.406464,-765.703232,-9341.579430
207.761599,-2392.822600,516.849682,-9399.007173
207.764172,2833.101958,650.847747,-8499.305875
207.766745,459.421939,-210.568389,-9418.149754
207.769318,3215.953574,478.564520,-9399.007173
207.771891,1971.685822,401.994197,-8843.872330
207.774464,95.712904,-57.427742,-8939.585234
207.777038,-1205.982590,-153.140646,-9169.296203
207.779611,4364.508422,-153.140646,-9073.583299
207.782184,3751.945837,1301.695494,-9035.298138
207.784757,1339.980656,76.570323,-8767.302006
207.787330,191.425808,-191.425808,-8652.446522
207.789903,2316.252277,1014.556782,-9054.440718
207.792476,1646.261949,267.996131,-9188.438784
207.795050,1473.978722,976.271621,-9226.723946
207.797623,4460.221326,1071.984525,-8173.882002
207.800196,-497.707101,-918.843878,-9054.440718
207.802769,-344.566454,-248.853550,-10279.565890
207.805342,1818.545176,842.273555,-8556.733618
207.807915,4268.795518,1493.121302,-8422.735552
207.810489,1722.832272,1244.267752,-9494.720077
207.813062,-401.994197,-516.849682,-9475.577496
207.815635,5168.496816,1473.978722,-8212.167163
207.818208,1416.550979,631.705166,-9035.298138
207.820781,-440.279358,746.560651,-9322.436850
207.823354,-1378.265818,172.283227,-9590.432981
207.825927,2718.246474,-114.855485,-8365.307810
207.828501,3215.953574,1397.408398,-8901.300072
207.831074,669.990328,650.847747,-9647.860723
207.833647,-650.847747,-267.996131,-9035.298138
207.836220,-746.560651,363.709035,-8786.444587
207.838793,1435.693560,-248.853550,-8977.870395
207.841366,267.996131,842.273555,-9609.575562
207.843940,3732.803256,708.275490,-9092.725880
207.846513,-306.281293,38.285162,-8920.442653
207.849086,1359.123237,325.423874,-8614.161360
207.851659,-1569.691626,478.564520,-9839.286531
207.854232,2067.398726,57.427742,-9054.440718
207.856810,2450.250342,401.994197,-9207.581365
207.859388,3177.668413,880.558717,-8422.735552
207.861966,-708.275490,-918.843878,-9341.579430
207.864543,1033.699363,-765.703232,-9341.579430
207.867121,4019.941968,-918.843878,-8633.303941
207.869699,-746.560651,-937.986459,-9245.866526
207.872277,-3713.660675,-784.845813,-9552.147819
207.874854,2794.816797,861.416136,-8671.589102
207.877432,3483.949706,823.130974,-8767.302006
207.880010,1914.258080,-76.570323,-9322.436850
207.882588,-2220.539373,478.564520,-9360.722011
207.885166,1665.404530,1129.412267,-8633.303941
207.887743,-133.998066,267.996131,-9092.725880
207.890321,-287.138712,-555.134843,-9494.720077
207.892899,3254.238736,1033.699363,-9245.866526
207.895477,5953.342629,593.420005,-8729.016845
207.898054,-1550.549045,-918.843878,-9379.864592
207.900632,-1167.697429,1129.412267,-8901.300072
207.903210,3158.525832,76.570323,-8901.300072
207.905788,4881.358104,708.275490,-9054.440718
207.908366,2277.967115,1339.980656,-8690.731683
207.910943,287.138712,-382.851616,-9035.298138
207.913521,-516.849682,-593.420005,-9284.151688
207.916099,5149.354235,1703.689691,-8633.303941
207.918677,1397.408398,325.423874,-9456.434915
207.921255,0.000000,1205.982590,-8882.157491
207.923832,5513.063270,1225.125171,-8135.596840
207.926410,2622.533570,-1454.836141,-8690.731683
207.928988,-267.996131,-1225.125171,-8901.300072
207.931566,1263.410333,-842.273555,-9494.720077
207.934143,1473.978722,229.710970,-9513.862658
207.936721,3847.658741,497.707101,-8767.302006
207.939299,-555.134843,-95.712904,-9226.723946
207.941877,3273.381317,1186.840010,-8901.300072
207.944455,2277.967115,1110.269686,-8748.159426
207.947032,-267.996131,-114.855485,-9131.011042
207.949610,401.994197,957.129040,-8729.016845
207.952188,3101.098090,421.136778,-9054.440718
207.954766,2794.816797,593.420005,-9073.583299
207.957343,401.994197,1741.974853,-8882.157491
207.959925,-2718.246474,-631.705166,-9016.155557
207.962507,2526.820666,0.000000,-8939.585234
207.965089,2258.824534,727.418070,-9475.577496
207.967671,1473.978722,401.994197,-9265.009107
207.970252,459.421939,-574.277424,-8575.876198
207.972834,-784.845813,-401.994197,-8863.014910
207.975416,-1646.261949,382.851616,-9571.290400
207.977998,3005.385186,382.851616,-9341.579430
207.980579,1837.687757,555.134843,-8997.012976
207.983161,-3866.801322,-1454.836141,-10336.993632
207.985743,2622.533570,191.425808,-9245.866526
207.988325,-38.285162,1052.841944,-8461.020714
207.990906,2086.541307,918.843878,-8288.737486
207.993488,-2775.674216,-593.420005,-9858.429112
207.996070,-574.277424,-535.992262,-9341.579430
207.998652,4307.080680,593.420005,-8690.731683
208.001233,-2450.250342,-57.427742,-9877.571693
208.003815,2737.389054,1320.838075,-8786.444587
208.006397,612.562586,287.138712,-8939.585234
208.008979,-516.849682,459.421939,-8671.589102
208.011561,-1627.119368,727.418070,-9552.147819
208.014142,3005.385186,-957.129040,-9379.864592
208.016724,2967.100024,1225.125171,-9399.007173
208.019306,2679.961312,1378.265818,-8901.300072
208.021888,-803.988394,76.570323,-8480.163294
208.024469,-1914.258080,535.992262,-9667.003304
208.027051,4728.217458,1014.556782,-8805.587168
208.029633,5111.069074,210.568389,-8901.300072
208.032215,-650.847747,842.273555,-8939.585234
208.034796,1148.554848,-191.425808,-8575.876198
208.037378,937.986459,-555.134843,-8977.870395
208.039960,-727.418070,401.994197,-10356.136213
208.042542,880.558717,2239.681954,-8748.159426
208.045124,4287.938099,2411.965181,-8250.452325
208.047705,267.996131,287.138712,-9628.718142
208.050287,-1799.402595,-210.568389,-9399.007173
208.052869,4192.225195,2067.398726,-8365.307810
208.055451,4153.940034,995.414202,-9035.298138
208.058032,-1167.697429,248.853550,-9533.005238
208.060614,4364.508422,1435.693560,-8614.161360
208.063175,4039.084549,1244.267752,-8365.307810
208.065735,1014.556782,555.134843,-9169.296203
208.068295,-746.560651,535.992262,-9188.438784
208.070856,3464.807125,248.853550,-8173.882002
208.073416,1607.976787,478.564520,-9322.436850
208.075977,1244.267752,689.132909,-9456.434915
208.078537,918.843878,363.709035,-8709.874264
208.081097,-708.275490,38.285162,-8671.589102
208.083658,-555.134843,-803.988394,-9628.718142
208.086218,306.281293,937.986459,-9399.007173
208.088779,5111.069074,497.707101,-8843.872330
208.091339,-497.707101,-172.283227,-8863.014910
208.093899,-421.136778,95.712904,-9379.864592
208.096460,-1761.117434,-248.853550,-9667.003304
208.099020,3943.371645,516.849682,-8633.303941
208.101581,2086.541307,516.849682,-8824.729749
208.104141,6029.912952,-842.273555,-8499.305875
208.106701,-4307.080680,-3273.381317,-9609.575562
208.109262,2526.820666,-1052.841944,-9552.147819
208.111822,-1244.267752,-210.568389,-9284.151688
208.114383,459.421939,191.425808,-8748.159426
208.116943,650.847747,2086.541307,-8939.585234
208.119504,2354.537438,363.709035,-9245.866526
208.122064,-459.421939,-421.136778,-9801.001370
208.124624,3196.810994,1397.408398,-8843.872330
208.127185,-784.845813,-593.420005,-8824.729749
208.129745,-765.703232,-669.990328,-9131.011042
208.132306,-1282.552914,2163.111630,-9360.722011
208.134866,4134.797453,38.285162,-8920.442653
208.137426,4268.795518,1186.840010,-9226.723946
208.139987,440.279358,210.568389,-9284.151688
208.142547,0.000000,1091.127106,-8365.307810
208.145108,1895.115499,114.855485,-9169.296203
208.147668,4096.512291,421.136778,-9150.153622
208.150228,3330.809059,899.701298,-9092.725880
208.152789,-1014.556782,153.140646,-8977.870395
208.155349,995.414202,765.703232,-8518.448456
208.157910,3292.523898,861.416136,-8843.872330
208.160470,2143.969050,-287.138712,-9418.149754
208.163030,5264.209720,-114.855485,-8537.591037
208.165597,-2201.396792,-593.420005,-9743.573627
208.168164,287.138712,440.279358,-9265.009107
208.170731,229.710970,1320.838075,-8958.727814
208.173297,5761.916821,1914.258080,-8480.163294
208.175864,19.142581,-880.558717,-9303.294269
208.178431,1799.402595,363.709035,-9207.581365
208.180998,4728.217458,1646.261949,-8403.592971
208.183564,-1110.269686,-1895.115499,-9667.003304
208.186131,2660.818731,1091.127106,-8958.727814
208.188698,-133.998066,153.140646,-8958.727814
208.191264,880.558717,-76.570323,-9054.440718
208.193831,2565.105827,899.701298,-9265.009107
208.196398,3503.092286,1033.699363,-8709.874264
208.198965,-2928.814862,516.849682,-9341.579430
208.201531,-918.843878,-861.416136,-9016.155557
208.204098,1933.400661,784.845813,-9150.153622
208.206665,3043.670347,-57.427742,-9590.432981
208.209231,-191.425808,478.564520,-9303.294269
208.211798,-2029.113565,-76.570323,-9131.011042
208.214365,-382.851616,727.418070,-8939.585234
208.216932,2201.396792,842.273555,-8939.585234
208.219498,1703.689691,-287.138712,-9418.149754
208.222065,4479.363907,-421.136778,-8288.737486
208.224632,-2277.967115,-1378.265818,-9705.288466
208.227199,-38.285162,-516.849682,-9647.860723
208.229765,1895.115499,-861.416136,-8709.874264
208.232332,248.853550,-497.707101,-8614.161360
208.234899,-3751.945837,-401.994197,-9858.429112
208.237465,3637.090352,1071.984525,-8977.870395
208.240032,153.140646,-401.994197,-9609.575562
208.242599,1607.976787,957.129040,-9303.294269
208.245166,363.709035,-153.140646,-8709.874264
208.247732,-382.851616,1052.841944,-9131.011042
208.250299,-2048.256146,650.847747,-9418.149754
208.252866,2718.246474,-478.564520,-9399.007173
208.255433,3158.525832,1588.834206,-9207.581365
208.257999,2277.967115,765.703232,-9073.583299
208.260566,-1397.408398,-95.712904,-8690.731683
208.263133,267.996131,535.992262,-9360.722011
208.265699,3522.234867,-19.142581,-8939.585234
208.268271,3349.951640,1071.984525,-9418.149754
208.270843,1818.545176,1052.841944,-8480.163294
208.273414,2220.539373,-229.710970,-8709.874264
208.275986,-1148.554848,363.709035,-9609.575562
208.278557,784.845813,440.279358,-9915.856854
208.281129,-1091.127106,2067.398726,-8997.012976
208.283700,4632.504554,2813.959378,-8193.024582
208.286272,5245.067139,478.564520,-7637.889739
208.288844,-1531.406464,-3005.385186,-10662.417506
208.291415,1588.834206,-57.427742,-9188.438784
208.293987,3751.945837,2239.681954,-8786.444587
208.296558,5053.641331,1148.554848,-8346.165229
208.299130,-2335.394858,-689.132909,-10068.997501
208.301701,2354.537438,306.281293,-8690.731683
208.304273,3713.660675,535.992262,-8824.729749
208.306844,1263.410333,-76.570323,-8518.448456
208.309416,-344.566454,363.709035,-9533.005238
208.311988,3043.670347,459.421939,-9131.011042
208.314559,1320.838075,574.277424,-8977.870395
208.317131,-401.994197,382.851616,-8671.589102
208.319702,-1569.691626,-325.423874,-9322.436850
208.322274,440.279358,1033.699363,-9265.009107
208.324845,4555.934230,133.998066,-9150.153622
208.327417,-976.271621,421.136778,-9418.149754
208.329989,-1741.974853,0.000000,-9092.725880
208.332560,-248.853550,516.849682,-9303.294269
208.335132,2967.100024,727.418070,-8671.589102
208.337703,2967.100024,-76.570323,-9035.298138
208.340275,-2679.961312,-899.701298,-10681.560086
208.342846,-1799.402595,1722.832272,-9016.155557
208.345418,5091.926493,3751.945837,-7121.040058
208.347990,1435.693560,-937.986459,-9686.145885
208.350561,-5359.922624,-3962.514226,-10126.425243
208.353133,708.275490,669.990328,-9303.294269
208.355704,4689.932296,1320.838075,-7963.313613
208.358276,1512.263883,248.853550,-9590.432981
208.360847,-1856.830338,995.414202,-9801.001370
208.363419,1339.980656,1799.402595,-8461.020714
208.365990,1569.691626,-421.136778,-8422.735552
208.368562,-2852.244539,-1454.836141,-10145.567824
208.371138,3464.807125,823.130974,-9169.296203
208.373713,6910.471669,1244.267752,-8614.161360
208.376289,-516.849682,-612.562586,-9188.438784
208.378865,-2488.535504,325.423874,-8901.300072
208.381441,3043.670347,325.423874,-8958.727814
208.384016,4058.227130,1186.840010,-9150.153622
208.386592,2163.111630,727.418070,-9188.438784
208.389168,-995.414202,-172.283227,-9303.294269
208.391744,765.703232,976.271621,-8556.733618
208.394319,2871.387120,957.129040,-9379.864592
208.396895,-1071.984525,727.418070,-9820.143950
208.399471,3043.670347,2124.826469,-8327.022648
208.402047,535.992262,2373.680019,-8843.872330
208.404622,3579.662610,-1129.412267,-9131.011042
208.407198,918.843878,363.709035,-9590.432981
208.409774,1033.699363,957.129040,-9073.583299
208.412349,3771.088418,114.855485,-8499.305875
208.414925,3101.098090,497.707101,-9131.011042
208.417501,-363.709035,-1033.699363,-9418.149754
208.420077,3024.527766,1014.556782,-8595.018779
208.422652,57.427742,114.855485,-9016.155557
208.425228,-344.566454,-516.849682,-9360.722011
208.427804,4479.363907,1397.408398,-9016.155557
208.430380,2143.969050,746.560651,-9111.868461
208.432955,-1971.685822,133.998066,-9073.583299
208.435531,-2737.389054,440.279358,-9111.868461
208.438107,1914.258080,-1933.400661,-9456.434915
208.440682,4498.506488,708.275490,-8939.585234
208.443258,-306.281293,1033.699363,-9322.436850
208.445834,-2833.101958,-650.847747,-8920.442653
208.448410,899.701298,478.564520,-8958.727814
208.450985,1703.689691,842.273555,-9360.722011
208.453561,1933.400661,-95.712904,-9533.005238
208.456137,5072.783912,-631.705166,-8173.882002
208.458713,-2316.252277,-899.701298,-9781.858789
208.461288,-2450.250342,-669.990328,-10222.138147
208.463864,2756.531635,1531.406464,-7714.460062
208.466440,1359.123237,1359.123237,-8173.882002
208.469015,-497.707101,1301.695494,-8958.727814
208.471591,-1588.834206,1627.119368,-10126.425243
208.474147,5895.914886,382.851616,-8346.165229
208.476703,1703.689691,344.566454,-9360.722011
208.479259,-4268.795518,172.283227,-9628.718142
208.481815,803.988394,593.420005,-8595.018779
208.484371,1703.689691,-363.709035,-8882.157491
208.486928,2182.254211,823.130974,-9647.860723
208.489484,4039.084549,555.134843,-9035.298138
208.492040,287.138712,-363.709035,-8920.442653
208.494596,-555.134843,19.142581,-8690.731683
208.497152,3694.518094,-95.712904,-9035.298138
208.499708,3522.234867,2316.252277,-9628.718142
208.502264,3292.523898,19.142581,-8652.446522
208.504820,-574.277424,57.427742,-8920.442653
208.507376,-440.279358,1052.841944,-8748.159426
208.509932,4441.078746,765.703232,-8327.022648
208.512488,4823.930362,-478.564520,-8729.016845
208.515044,-708.275490,-1531.406464,-9934.999435
208.517600,2182.254211,-114.855485,-8767.302006
208.520156,4039.084549,1588.834206,-8748.159426
208.522712,3943.371645,76.570323,-8614.161360
208.525268,-2201.396792,-497.707101,-10394.421374
208.527824,4345.365842,2163.111630,-8327.022648
208.530380,2622.533570,497.707101,-8633.303941
208.532936,-727.418070,1301.695494,-9533.005238
208.535493,2565.105827,172.283227,-8595.018779
208.538049,2431.107762,-172.283227,-8575.876198
208.540605,-861.416136,459.421939,-9513.862658
208.543161,4211.367776,0.000000,-9150.153622
208.545717,-1091.127106,19.142581,-9399.007173
208.548273,0.000000,842.273555,-8556.733618
208.550829,-937.986459,-669.990328,-9265.009107
208.553385,803.988394,823.130974,-9590.432981
208.555941,5034.498750,133.998066,-8671.589102
208.558497,-382.851616,765.703232,-9035.298138
208.561053,-4287.938099,-382.851616,-9781.858789
208.563609,1397.408398,401.994197,-8882.157491
208.566165,2890.529701,574.277424,-8843.872330
208.568721,2373.680019,-191.425808,-9245.866526
208.571277,-650.847747,-976.271621,-9456.434915
208.573833,2526.820666,593.420005,-9322.436850
208.576395,-3235.096155,-1761.117434,-9437.292334
208.578957,-248.853550,248.853550,-8709.874264
208.581520,1167.697429,937.986459,-8633.303941
208.584082,363.709035,459.421939,-9494.720077
208.586645,210.568389,440.279358,-9322.436850
208.589207,3809.373579,689.132909,-9073.583299
208.591770,-1531.406464,191.425808,-9437.292334
208.594332,-267.996131,191.425808,-9092.725880
208.596895,-1378.265818,1320.838075,-9207.581365
208.599457,4096.512291,631.705166,-8786.444587
208.602019,5474.778109,1244.267752,-8824.729749
208.604582,-1052.841944,-153.140646,-9647.860723
208.607144,-95.712904,555.134843,-8461.020714
208.609707,1091.127106,-344.566454,-9245.866526
208.612269,4670.789715,937.986459,-9131.011042
208.614832,2641.676150,-153.140646,-9322.436850
208.617394,2220.539373,574.277424,-8614.161360
208.619957,535.992262,-287.138712,-8671.589102
208.622519,-459.421939,-172.283227,-9418.149754
208.625082,2928.814862,842.273555,-9552.147819
208.627644,4785.645200,2143.969050,-8059.026517
208.630207,-1186.840010,-38.285162,-9954.142016
208.632769,-76.570323,612.562586,-9245.866526
208.635332,4077.369710,2431.107762,-8499.305875
208.637894,3273.381317,957.129040,-9150.153622
208.640456,-210.568389,-229.710970,-9628.718142
208.643019,4134.797453,1818.545176,-8365.307810
208.645581,555.134843,1014.556782,-9303.294269
208.648144,1359.123237,-153.140646,-8920.442653
208.650706,765.703232,784.845813,-8690.731683
208.653269,4402.793584,478.564520,-8709.874264
208.655831,3139.383251,516.849682,-9188.438784
208.658394,-612.562586,19.142581,-9533.005238
208.660956,-1263.410333,-133.998066,-8461.020714
208.663519,344.566454,535.992262,-9360.722011
208.666081,-1627.119368,880.558717,-9992.427178
208.668644,6278.766502,-229.710970,-8480.163294
208.671206,-976.271621,1186.840010,-9092.725880
208.673769,-3349.951640,-172.283227,-9322.436850
208.676331,1607.976787,-114.855485,-8690.731683
208.678899,3713.660675,727.418070,-8843.872330
208.681466,1512.263883,325.423874,-9475.577496
208.684034,-5130.211654,-38.285162,-10011.569758
208.686601,-708.275490,2143.969050,-9150.153622
208.689169,7637.889739,3656.232933,-7523.034254
208.691736,-3426.521963,-765.703232,-9379.864592
208.694304,-4058.227130,-1856.830338,-10145.567824
208.696871,2067.398726,708.275490,-8461.020714
208.699439,3694.518094,76.570323,-9284.151688
208.702006,-727.418070,133.998066,-9915.856854
208.704574,1301.695494,382.851616,-8518.448456
208.707142,1244.267752,382.851616,-8690.731683
208.709709,861.416136,-401.994197,-9207.581365
208.712277,1875.972918,-574.277424,-9667.003304
208.714844,5895.914886,1665.404530,-8671.589102
208.717412,-210.568389,-727.418070,-8977.870395
208.719979,-2258.824534,1014.556782,-8882.157491
208.722547,3349.951640,57.427742,-8920.442653
208.725114,4039.084549,497.707101,-9207.581365
208.727682,3292.523898,440.279358,-9245.866526
208.730250,38.285162,57.427742,-8575.876198
208.732817,2086.541307,593.420005,-8556.733618
208.735385,2565.105827,1091.127106,-9073.583299
208.737952,5723.631659,593.420005,-8078.169098
208.740520,1359.123237,-1531.406464,-9781.858789
208.743087,-4134.797453,-995.414202,-10375.278794
208.745655,5091.926493,2756.531635,-7714.460062
208.748222,4862.215523,1569.691626,-8709.874264
208.750790,-1646.261949,-1780.260014,-10107.282662
208.753357,2622.533570,267.996131,-8729.016845
208.755925,3771.088418,-95.712904,-8518.448456
208.758493,-574.277424,1454.836141,-9437.292334
208.761060,-1282.552914,-421.136778,-9609.575562
208.763628,535.992262,459.421939,-9111.868461
208.766195,4000.799387,306.281293,-8824.729749
208.768763,2373.680019,555.134843,-9207.581365
208.771330,-880.558717,899.701298,-9188.438784
208.773898,-2603.390989,-995.414202,-9131.011042
208.776465,1091.127106,-229.710970,-9207.581365
208.779033,3062.812928,1531.406464,-9169.296203
208.781605,1531.406464,-382.851616,-9265.009107
208.784177,-823.130974,593.420005,-8977.870395
208.786749,-631.705166,19.142581,-9322.436850
208.789321,325.423874,478.564520,-9571.290400
208.791893,4613.361973,708.275490,-8614.161360
208.794465,-2871.387120,-823.130974,-9915.856854
208.797037,1244.267752,478.564520,-9418.149754
208.799609,-1320.838075,1607.976787,-9341.579430
208.802180,2794.816797,1933.400661,-7752.745224
208.804752,-2871.387120,-631.705166,-9590.432981
208.807324,-363.709035,-631.705166,-9169.296203
208.809896,3139.383251,133.998066,-8958.727814
208.812468,784.845813,1359.123237,-9552.147819
208.815040,-1359.123237,-287.138712,-9360.722011
208.817612,344.566454,-363.709035,-9016.155557
208.820184,0.000000,210.568389,-9150.153622
208.822756,1186.840010,-516.849682,-9399.007173
208.825328,4211.367776,1167.697429,-9150.153622
208.827900,2622.533570,344.566454,-9035.298138
208.830472,-229.710970,880.558717,-8633.303941
208.833044,-2354.537438,-57.427742,-9686.145885
208.835616,4843.072942,172.283227,-8824.729749
208.838188,4881.358104,1244.267752,-9054.440718
208.840760,267.996131,1071.984525,-8863.014910
208.843332,1837.687757,114.855485,-8461.020714
208.845904,-899.701298,248.853550,-9513.862658
208.848476,-306.281293,689.132909,-9820.143950
208.851048,4575.076811,2756.531635,-8231.309744
208.853620,708.275490,1320.838075,-9207.581365
208.856191,-1952.543242,-306.281293,-9533.005238
208.858763,3732.803256,1397.408398,-9092.725880
208.861335,6757.331022,1607.976787,-8173.882002
208.863911,-1837.687757,-1588.834206,-9609.575562
208.866488,-631.705166,-1033.699363,-9552.147819
208.869064,4192.225195,382.851616,-8671.589102
208.871640,1052.841944,19.142581,-9092.725880
208.874216,-1971.685822,-19.142581,-9590.432981
208.876792,4287.938099,1071.984525,-8786.444587
208.879368,1952.543242,937.986459,-9150.153622
208.881944,-248.853550,784.845813,-9073.583299
208.884520,-3732.803256,-689.132909,-9111.868461
208.887096,2488.535504,-440.279358,-9150.153622
208.889672,2182.254211,1856.830338,-9284.151688
208.892248,2182.254211,-248.853550,-9150.153622
208.894824,-1990.828403,-248.853550,-8690.731683
208.897400,-516.849682,210.568389,-9169.296203
208.899976,248.853550,57.427742,-9877.571693
208.902552,497.707101,1263.410333,-9781.858789
208.905128,497.707101,1741.974853,-8269.594906
208.907704,765.703232,1588.834206,-8441.878133
208.910281,6087.340694,-899.701298,-9073.583299
208.912857,-3809.373579,-3254.238736,-9896.714274
208.915433,-1550.549045,-191.425808,-9131.011042
208.918009,1607.976787,1167.697429,-8193.024582
208.920585,1148.554848,325.423874,-9035.298138
208.923161,-133.998066,899.701298,-9762.716208
208.925737,1397.408398,574.277424,-8633.303941
208.928313,-708.275490,-38.285162,-8901.300072
208.930889,-842.273555,555.134843,-9494.720077
208.933465,2909.672282,-19.142581,-9150.153622
208.936041,6221.338760,1148.554848,-8652.446522
208.938617,-325.423874,-19.142581,-9169.296203
208.941193,-1627.119368,612.562586,-8633.303941
208.943769,1875.972918,842.273555,-9054.440718
208.946345,4460.221326,1856.830338,-8997.012976
208.948921,2660.818731,765.703232,-9533.005238
208.951498,-842.273555,401.994197,-8633.303941
208.954074,1990.828403,382.851616,-8537.591037
208.956650,-95.712904,976.271621,-9590.432981
208.959226,918.843878,1416.550979,-8671.589102
208.961802,8537.591037,1914.258080,-7695.317482
208.964378,-5072.783912,-3101.098090,-10949.556218
208.966957,191.425808,95.712904,-9150.153622
208.969536,9571.290400,3847.658741,-7542.176835
208.972114,-612.562586,-229.710970,-9533.005238
208.974693,-2354.537438,-823.130974,-9705.288466
208.977272,3522.234867,2890.529701,-8499.305875
208.979851,3905.086483,-440.279358,-8709.874264
208.982430,-1990.828403,-2431.107762,-9437.292334
208.985009,995.414202,1129.412267,-9341.579430
208.987588,5838.487144,19.142581,-8958.727814
208.990167,-593.420005,516.849682,-9341.579430
208.992745,-2507.678085,-708.275490,-8977.870395
208.995324,-459.421939,937.986459,-8977.870395
208.997903,1244.267752,516.849682,-9647.860723
209.000482,3771.088418,-19.142581,-9092.725880
209.003061,-995.414202,535.992262,-8977.870395
209.005640,-3541.377448,-421.136778,-9169.296203
209.008219,1780.260014,153.140646,-9188.438784
209.010798,2756.531635,765.703232,-9494.720077
209.013376,-3235.096155,784.845813,-9877.571693
209.015955,2584.248408,1435.693560,-8709.874264
209.018534,2411.965181,918.843878,-8441.878133
209.021113,1052.841944,114.855485,-8958.727814
209.023692,-3541.377448,-976.271621,-9801.001370
209.026271,114.855485,-459.421939,-8958.727814
209.028850,4364.508422,650.847747,-8518.448456
209.031429,1971.685822,-440.279358,-9456.434915
209.034007,-880.558717,957.129040,-9667.003304
209.036586,0.000000,76.570323,-8805.587168
209.039165,823.130974,-382.851616,-8805.587168
209.041744,823.130974,478.564520,-9571.290400
209.044323,4594.219392,210.568389,-9265.009107
209.046902,1646.261949,-19.142581,-9111.868461
209.049481,-1244.267752,1550.549045,-8882.157491
209.052060,-287.138712,287.138712,-8958.727814
209.054638,3369.094221,516.849682,-9628.718142
209.057217,4019.941968,957.129040,-9226.723946
209.059796,2679.961312,995.414202,-8269.594906
209.062375,-803.988394,0.000000,-9092.725880
209.064954,1359.123237,-478.564520,-8824.729749
209.067533,4594.219392,-784.845813,-9265.009107
209.070114,-899.701298,344.566454,-9533.005238
209.072696,3235.096155,306.281293,-8154.739421
209.075277,1761.117434,937.986459,-9686.145885
209.077858,2411.965181,-210.568389,-9284.151688
209.080440,2641.676150,918.843878,-8843.872330
209.083021,2086.541307,574.277424,-8824.729749
209.085602,957.129040,1684.547110,-9054.440718
209.088184,2105.683888,516.849682,-8882.157491
209.090765,-440.279358,-172.283227,-9169.296203
209.093347,2373.680019,1205.982590,-8977.870395
209.095928,4077.369710,267.996131,-9169.296203
209.098509,287.138712,555.134843,-9399.007173
209.101091,-2833.101958,497.707101,-9016.155557
209.103672,-363.709035,344.566454,-9131.011042
209.106253,1186.840010,1052.841944,-9456.434915
209.108835,3464.807125,-229.710970,-8958.727814
209.111416,-2220.539373,823.130974,-9341.579430
209.113998,-2622.533570,-191.425808,-8939.585234
209.116579,2794.816797,363.709035,-9054.440718
209.119160,191.425808,382.851616,-10241.280728
209.121742,3483.949706,1205.982590,-8154.739421
209.124323,-19.142581,861.416136,-8729.016845
209.126905,593.420005,-1780.260014,-9896.714274
209.129486,-1799.402595,-1244.267752,-9284.151688
209.132067,2641.676150,2373.680019,-8384.450390
209.134649,-2392.822600,823.130974,-9379.864592
209.137230,-1607.976787,-689.132909,-10068.997501
209.139811,4096.512291,1646.261949,-8920.442653
209.142393,1071.984525,1129.412267,-8786.444587
209.144974,-1071.984525,-784.845813,-9341.579430
209.147556,-1339.980656,-57.427742,-9341.579430
209.150137,3273.381317,1129.412267,-9131.011042
209.152718,5245.067139,1052.841944,-8805.587168
209.155300,-325.423874,-344.566454,-9245.866526
209.157881,-803.988394,1416.550979,-8595.018779
209.160462,976.271621,19.142581,-9207.581365
209.163044,5455.635528,1971.685822,-8748.159426
209.165625,2009.970984,38.285162,-9437.292334
209.168207,-191.425808,1339.980656,-8709.874264
209.170788,2354.537438,535.992262,-8020.741355
209.173371,2354.537438,38.285162,-9111.868461
209.175954,-3196.810994,-746.560651,-10356.136213
209.178537,6642.475538,2258.824534,-7714.460062
209.181120,-1359.123237,1186.840010,-9533.005238
209.183703,306.281293,-650.847747,-9762.716208
209.186286,5168.496816,2067.398726,-8441.878133
209.188869,4575.076811,1110.269686,-8767.302006
209.191452,-727.418070,-1646.261949,-9169.296203
209.194035,19.142581,-133.998066,-9226.723946
209.196618,2986.242605,803.988394,-8480.163294
209.199201,76.570323,172.283227,-9207.581365
209.201784,574.277424,440.279358,-9743.573627
209.204367,4843.072942,1569.691626,-8671.589102
209.206950,-631.705166,-133.998066,-8977.870395
209.209533,-4594.219392,-1263.410333,-9762.716208
209.212116,2584.248408,191.425808,-8767.302006
209.214699,2833.101958,1320.838075,-9265.009107
209.217282,-593.420005,382.851616,-9379.864592
209.219865,-1339.980656,-325.423874,-8767.302006
209.222448,-1205.982590,57.427742,-9609.575562
209.225031,1205.982590,861.416136,-9762.716208
209.227614,440.279358,976.271621,-8977.870395
209.230197,3560.520029,1282.552914,-8748.159426
209.232780,1761.117434,57.427742,-8690.731683
209.235363,-2067.398726,-1454.836141,-9781.858789
209.237946,-1263.410333,-669.990328,-9265.009107
209.240529,1205.982590,497.707101,-8499.305875
209.243112,1282.552914,803.988394,-8614.161360
209.245695,306.281293,-38.285162,-9781.858789
209.248278,631.705166,401.994197,-9035.298138
209.250861,1990.828403,-631.705166,-8863.014910
209.253444,-1091.127106,229.710970,-9245.866526
209.256027,267.996131,-76.570323,-9399.007173
209.258610,5398.207786,1052.841944,-8824.729749
209.261193,1761.117434,-191.425808,-9207.581365
209.263776,-631.705166,-19.142581,-8690.731683
209.266359,-1110.269686,631.705166,-9360.722011
209.268942,3771.088418,325.423874,-8901.300072
209.271525,5015.356170,957.129040,-9418.149754
209.274108,2201.396792,535.992262,-8403.592971
209.276692,-2009.970984,-593.420005,-9245.866526
209.279277,153.140646,267.996131,-9265.009107
209.281862,8307.880067,1646.261949,-7905.885870
209.284446,-1550.549045,-1110.269686,-9341.579430
209.287031,2450.250342,-421.136778,-9379.864592
209.289615,3388.236802,-842.273555,-9418.149754
209.292200,2258.824534,114.855485,-8939.585234
209.294784,4077.369710,1359.123237,-8480.163294
209.297369,2622.533570,803.988394,-8652.446522
209.299953,-708.275490,-478.564520,-9705.288466
209.302538,1990.828403,114.855485,-8461.020714
209.305123,708.275490,57.427742,-9169.296203
209.307707,1014.556782,1167.697429,-9896.714274
209.310292,3981.656806,995.414202,-8709.874264
209.312876,440.279358,555.134843,-8767.302006
209.315461,-4287.938099,-1205.982590,-9494.720077
209.318045,1320.838075,-153.140646,-8920.442653
209.320630,3445.664544,1225.125171,-9169.296203
209.323215,1473.978722,133.998066,-9207.581365
209.325799,-1856.830338,-555.134843,-8824.729749
209.328384,-1301.695494,344.566454,-9226.723946
209.330968,3005.385186,516.849682,-9667.003304
209.333553,4785.645200,248.853550,-8499.305875
209.336137,-1225.125171,-727.418070,-9686.145885
209.338722,-3062.812928,-574.277424,-9973.284597
209.341306,3158.525832,2105.683888,-7867.600709
209.343891,574.277424,976.271621,-9054.440718
209.346476,-5321.637462,-2086.541307,-10126.425243
209.349060,2431.107762,765.703232,-8977.870395
209.351645,4287.938099,1378.265818,-8403.592971
209.354229,459.421939,133.998066,-9207.581365
209.356814,-2277.967115,-95.712904,-9743.573627
209.359398,-1014.556782,-248.853550,-9150.153622
209.361983,4383.651003,650.847747,-8595.018779
209.364567,4766.502619,1186.840010,-9016.155557
209.367152,-880.558717,-57.427742,-9016.155557
209.369737,267.996131,1875.972918,-8556.733618
209.372321,421.136778,133.998066,-8977.870395
209.374906,3866.801322,-153.140646,-9552.147819
209.377490,4689.932296,1033.699363,-9035.298138
209.380055,1627.119368,267.996131,-8116.454259
209.382619,-516.849682,287.138712,-8863.014910
209.385184,2545.963246,-803.988394,-8920.442653
209.387748,6163.911018,-153.140646,-8633.303941
209.390313,1531.406464,-1244.267752,-9169.296203
209.392877,-3464.807125,-1646.261949,-10202.995566
209.395442,5398.207786,1780.260014,-8901.300072
209.398006,4709.074877,1339.980656,-8729.016845
209.400571,1588.834206,784.845813,-9303.294269
209.403135,-306.281293,803.988394,-8767.302006
209.405700,2277.967115,1014.556782,-8748.159426
209.408264,1531.406464,-1071.984525,-8499.305875
209.410829,765.703232,1512.263883,-9533.005238
209.413393,3751.945837,-38.285162,-9265.009107
209.415958,957.129040,765.703232,-8958.727814
209.418522,-1607.976787,38.285162,-8805.587168
209.421087,-1263.410333,-574.277424,-9456.434915
209.423651,95.712904,746.560651,-9475.577496
209.426215,5283.352301,1244.267752,-8537.591037
209.428780,-2067.398726,325.423874,-9226.723946
209.431344,-2411.965181,153.140646,-9073.583299
209.433909,2067.398726,-38.285162,-9379.864592
209.436473,2201.396792,995.414202,-9207.581365
209.439038,7408.178770,689.132909,-7944.171032
209.441602,-7867.600709,-3215.953574,-11083.554283
209.444167,497.707101,803.988394,-8518.448456
209.446731,6183.053598,3771.088418,-7561.319416
209.449296,-4096.512291,306.281293,-9609.575562
209.451860,-2833.101958,-1971.685822,-9954.142016
209.454425,5742.774240,3139.383251,-8059.026517
209.456989,440.279358,-1129.412267,-9513.862658
209.459554,-1550.549045,-1818.545176,-9934.999435
209.462118,-1359.123237,899.701298,-9322.436850
209.464683,4575.076811,-823.130974,-8461.020714
209.467247,2277.967115,478.564520,-9667.003304
209.469812,1895.115499,344.566454,-8997.012976
209.472376,76.570323,2143.969050,-8346.165229
209.474941,57.427742,861.416136,-8939.585234
209.477505,1378.265818,-918.843878,-9360.722011
209.480070,7676.174901,1167.697429,-8920.442653
209.482638,2852.244539,497.707101,-9303.294269
209.485206,-3311.666478,-555.134843,-9647.860723
209.487774,19.142581,727.418070,-9303.294269
209.490343,5991.627790,1780.260014,-8001.598774
209.492911,-650.847747,555.134843,-8824.729749
209.495479,3675.375514,-19.142581,-9475.577496
209.498047,2297.109696,-612.562586,-9705.288466
209.500615,2009.970984,727.418070,-9073.583299
209.503184,3349.951640,1301.695494,-8537.591037
209.505752,1914.258080,995.414202,-8748.159426
209.508320,-191.425808,-803.988394,-9360.722011
209.510888,2277.967115,-842.273555,-8403.592971
209.513456,861.416136,995.414202,-9073.583299
209.516025,3503.092286,363.709035,-9743.573627
209.518593,1320.838075,421.136778,-9054.440718
209.521161,-57.427742,-210.568389,-8748.159426
209.523729,-3292.523898,172.283227,-9379.864592
209.526298,784.845813,210.568389,-9207.581365
209.528866,4268.795518,1512.263883,-8901.300072
209.531434,-459.421939,267.996131,-9284.151688
209.534002,-2354.537438,-746.560651,-8709.874264
209.536570,-1071.984525,76.570323,-9513.862658
209.539139,2756.531635,1148.554848,-9073.583299
209.541707,-2507.678085,-1569.691626,-10107.282662
209.544275,1167.697429,765.703232,-9016.155557
209.546843,1397.408398,937.986459,-8537.591037
209.549411,-2239.681954,593.420005,-9399.007173
209.551980,-899.701298,382.851616,-8748.159426
209.554548,1761.117434,-19.142581,-8863.014910
209.557116,-95.712904,1129.412267,-9801.001370
209.559684,2488.535504,-172.283227,-9131.011042
209.562252,-210.568389,1052.841944,-9092.725880
209.564821,-38.285162,497.707101,-9245.866526
209.567389,2660.818731,95.712904,-8729.016845
209.569957,4613.361973,440.279358,-9150.153622
209.572525,210.568389,191.425808,-9418.149754
209.575094,95.712904,478.564520,-8307.880067
209.577662,153.140646,593.420005,-9150.153622
209.580230,3311.666478,-440.279358,-9418.149754
209.582798,5953.342629,574.277424,-8920.442653
209.585369,2756.531635,899.701298,-9073.583299
209.587941,-2699.103893,-861.416136,-9169.296203
209.590513,3560.520029,708.275490,-8059.026517
209.593084,7389.036189,1493.121302,-8116.454259
209.595656,-172.283227,-1359.123237,-9322.436850
209.598227,-3675.375514,76.570323,-9954.142016
209.600799,6412.764568,2086.541307,-8595.018779
209.603371,5417.350366,1091.127106,-8748.159426
209.605942,-861.416136,-153.140646,-9820.143950
209.608514,2928.814862,2431.107762,-8097.311678
209.611086,2392.822600,-153.140646,-8403.592971
209.613657,-2124.826469,-1435.693560,-9552.147819
209.616229,1722.832272,612.562586,-9073.583299
209.618801,5819.344563,-382.851616,-9226.723946
209.621372,-803.988394,325.423874,-9379.864592
209.623944,-2641.676150,-497.707101,-8882.157491
209.626516,-153.140646,401.994197,-9379.864592
209.629087,2143.969050,1052.841944,-9513.862658
209.631659,2335.394858,-248.853550,-8939.585234
209.634231,-1071.984525,976.271621,-8709.874264
209.636802,-2852.244539,-880.558717,-9131.011042
209.639374,689.132909,612.562586,-9571.290400
209.641945,2545.963246,1225.125171,-9896.714274
209.644517,-1320.838075,976.271621,-8920.442653
209.647089,-2488.535504,727.418070,-9934.999435
209.649660,3560.520029,3215.953574,-7944.171032
209.652232,172.283227,1722.832272,-8537.591037
209.654804,-2909.672282,-459.421939,-9628.718142
209.657375,-459.421939,-1359.123237,-9647.860723
209.659947,4670.789715,1761.117434,-8805.587168
209.662519,-880.558717,1569.691626,-9667.003304
209.665090,669.990328,823.130974,-8863.014910
209.667662,-344.566454,-535.992262,-9131.011042
209.670234,2737.389054,-95.712904,-9092.725880
209.672805,5723.631659,1282.552914,-8365.307810
209.675377,-937.986459,-861.416136,-9245.866526
209.677948,-2239.681954,-57.427742,-9054.440718
209.680520,2584.248408,459.421939,-8958.727814
209.683092,5340.780043,1569.691626,-9609.575562
209.685663,3503.092286,325.423874,-9207.581365
209.688238,1703.689691,1033.699363,-8269.594906
209.690812,-2431.107762,95.712904,-9628.718142
209.693386,4460.221326,0.000000,-7925.028451
209.695960,5647.061336,-440.279358,-9418.149754
209.698534,-4517.649069,-1205.982590,-10375.278794
209.701108,-1225.125171,-823.130974,-9513.862658
209.703682,8403.592971,3292.523898,-8288.737486
209.706256,2947.957443,574.277424,-9150.153622
209.708830,-689.132909,1186.840010,-9494.720077
209.711404,3790.230998,708.275490,-8250.452325
209.713978,-650.847747,-1550.549045,-8690.731683
209.716552,-861.416136,708.275490,-9456.434915
209.719127,3617.947771,57.427742,-9456.434915
209.721701,5053.641331,746.560651,-8595.018779
209.724275,-2622.533570,765.703232,-9456.434915
209.726849,-3790.230998,-172.283227,-9360.722011
209.729423,1473.978722,19.142581,-9418.149754
209.731997,4785.645200,1588.834206,-8709.874264
209.734571,-708.275490,172.283227,-8977.870395
209.737145,-3675.375514,-229.710970,-9399.007173
209.739719,38.285162,248.853550,-8767.302006
209.742293,5111.069074,612.562586,-8901.300072
209.744867,823.130974,-363.709035,-9915.856854
209.747442,-631.705166,-516.849682,-9762.716208
209.750016,-1703.689691,861.416136,-8824.729749
209.752590,2411.965181,133.998066,-8939.585234
209.755164,1186.840010,153.140646,-8518.448456
209.757738,-1473.978722,133.998066,-9820.143950
209.760312,1052.841944,344.566454,-9360.722011
209.762886,3943.371645,746.560651,-8614.161360
209.765460,-612.562586,-344.566454,-9762.716208
209.768034,-1071.984525,-153.140646,-9456.434915
209.770608,3445.664544,708.275490,-8709.874264
209.773182,4421.936165,478.564520,-8997.012976
209.775757,19.142581,-38.285162,-9303.294269
209.778331,-765.703232,631.705166,-8365.307810
209.780905,1512.263883,248.853550,-9188.438784
209.783479,5589.633594,1454.836141,-9054.440718
209.786053,4287.938099,459.421939,-9092.725880
209.788627,1665.404530,76.570323,-8480.163294
209.791203,-1167.697429,133.998066,-8882.157491
209.793779,2660.818731,-440.279358,-9552.147819
209.796356,1646.261949,-19.142581,-9092.725880
209.798932,1435.693560,765.703232,-8556.733618
209.801508,38.285162,1263.410333,-9877.571693
209.804084,4134.797453,172.283227,-9092.725880
209.806660,5149.354235,2009.970984,-8901.300072
209.809236,1856.830338,1416.550979,-8748.159426
209.811813,-708.275490,-76.570323,-8863.014910
209.814389,957.129040,-248.853550,-8499.305875
209.816965,57.427742,976.271621,-9207.581365
209.819541,3751.945837,229.710970,-9418.149754
209.822117,2086.541307,1129.412267,-9322.436850
209.824694,-1282.552914,803.988394,-8901.300072
209.827270,-2316.252277,-95.712904,-9494.720077
209.829846,1856.830338,191.425808,-9284.151688
209.832422,2947.957443,172.283227,-9054.440718
209.834998,-421.136778,612.562586,-8997.012976
209.837574,-3388.236802,-459.421939,-9360.722011
209.840151,689.132909,267.996131,-8748.159426
209.842727,4919.643266,708.275490,-9303.294269
209.845303,-1397.408398,-1244.267752,-10068.997501
209.847879,-497.707101,287.138712,-9035.298138
209.850455,5206.781978,2201.396792,-8212.167163
209.853032,-3062.812928,-1607.976787,-9150.153622
209.855608,-3445.664544,-918.843878,-9284.151688
209.858184,3617.947771,1359.123237,-8365.307810
209.860760,3311.666478,267.996131,-8901.300072
209.863336,-1129.412267,1282.552914,-9934.999435
209.865912,19.142581,1895.115499,-8977.870395
209.868489,1186.840010,-823.130974,-9054.440718
209.871065,1359.123237,823.130974,-9322.436850
209.873641,4173.082614,1110.269686,-8805.587168
209.876217,287.138712,-114.855485,-8671.589102
209.878793,-1627.119368,803.988394,-9111.868461
209.881369,95.712904,95.712904,-9092.725880
209.883946,7771.887805,1914.258080,-8958.727814
209.886522,4096.512291,306.281293,-9073.583299
209.889098,-918.843878,-172.283227,-8729.016845
209.891674,861.416136,191.425808,-8575.876198
209.894252,3426.521963,-1359.123237,-9590.432981
209.896830,1531.406464,-191.425808,-9590.432981
209.899408,-3560.520029,1914.258080,-8958.727814
209.901986,4862.215523,3081.955509,-8097.311678
209.904564,4555.934230,2143.969050,-9188.438784
209.907142,1741.974853,-957.129040,-9781.858789
209.909720,3120.240670,1895.115499,-8193.024582
209.912298,784.845813,267.996131,-8824.729749
209.914876,-1033.699363,-1148.554848,-8863.014910
209.917454,2392.822600,803.988394,-9513.862658
209.920032,5436.492947,1263.410333,-8882.157491
209.922610,-957.129040,-287.138712,-9303.294269
209.925188,-2469.392923,-229.710970,-8920.442653
209.927766,1282.552914,-344.566454,-9341.579430
209.930344,2239.681954,1301.695494,-9494.720077
209.932921,1512.263883,-440.279358,-9131.011042
209.935499,-1129.412267,401.994197,-8346.165229
209.938077,-2699.103893,-574.277424,-9150.153622
209.940655,1301.695494,765.703232,-9322.436850
209.943233,7274.180704,861.416136,-8384.450390
209.945811,-4977.071008,-1895.115499,-10202.995566
209.948389,4364.508422,153.140646,-8729.016845
209.950967,918.843878,-76.570323,-8843.872330
209.953545,-3503.092286,-1091.127106,-9399.007173
209.956123,-95.712904,-210.568389,-8863.014910
209.958701,2086.541307,19.142581,-9016.155557
209.961279,631.705166,-172.283227,-9552.147819
209.963857,1627.119368,306.281293,-9150.153622
209.966435,344.566454,1493.121302,-9245.866526
209.969013,1799.402595,401.994197,-9054.440718
209.971591,5187.639397,-19.142581,-8729.016845
209.974169,497.707101,459.421939,-9226.723946
209.976747,-1014.556782,1550.549045,-8461.020714
209.979325,-19.142581,344.566454,-8767.302006
209.981903,3809.373579,-19.142581,-9590.432981
209.984481,6029.912952,1397.408398,-8939.585234
209.987058,2718.246474,459.421939,-8575.876198
209.989636,-2833.101958,-38.285162,-9226.723946
209.992214,5723.631659,191.425808,-7465.606512
209.994792,1799.402595,-1416.550979,-10049.854920
209.997371,-2143.969050,-4249.652938,-10624.132344
209.999950,-4345.365842,-516.849682,-9705.288466
210.002529,10566.704602,4977.071008,-7523.034254
210.005108,3005.385186,-248.853550,-9150.153622
210.007687,-1473.978722,612.562586,-9973.284597
210.010267,5149.354235,1550.549045,-7618.747158
210.012846,-2316.252277,-1320.838075,-9265.009107
210.015425,-1378.265818,440.279358,-9418.149754
210.018004,6010.770371,1339.980656,-9303.294269
210.020583,3043.670347,-306.281293,-8671.589102
210.023162,-3503.092286,-401.994197,-9303.294269
210.025741,-1512.263883,497.707101,-9494.720077
210.028320,2947.957443,1837.687757,-9284.151688
210.030899,2143.969050,746.560651,-9169.296203
210.033478,-1339.980656,784.845813,-8882.157491
210.036057,-2469.392923,-765.703232,-9150.153622
210.038636,-1071.984525,650.847747,-9628.718142
210.041215,1875.972918,1225.125171,-9265.009107
210.043794,3943.371645,1493.121302,-8748.159426
210.046373,-803.988394,440.279358,-9226.723946
210.048952,1588.834206,-497.707101,-8403.592971
210.051531,-459.421939,516.849682,-9226.723946
210.054110,-2105.683888,-708.275490,-9437.292334
210.056689,1990.828403,229.710970,-9150.153622
210.059268,1627.119368,1091.127106,-9073.583299
210.061847,516.849682,-76.570323,-9379.864592
210.064426,1569.691626,650.847747,-9150.153622
210.067005,1512.263883,-631.705166,-9188.438784
210.069584,4153.940034,363.709035,-8824.729749
210.072163,1397.408398,-344.566454,-9284.151688
210.074742,-995.414202,1071.984525,-8441.878133
210.077321,287.138712,248.853550,-9265.009107
210.079900,4421.936165,784.845813,-9284.151688
210.082479,5359.922624,708.275490,-8920.442653
210.085058,1665.404530,612.562586,-8671.589102
210.087638,-1071.984525,133.998066,-8729.016845
210.090217,3771.088418,-1129.412267,-8920.442653
210.092796,574.277424,38.285162,-9475.577496
210.095375,3005.385186,153.140646,-8327.022648
210.097954,1454.836141,535.992262,-9341.579430
210.100534,2258.824534,76.570323,-9533.005238
210.103114,3483.949706,287.138712,-8709.874264
210.105694,3905.086483,669.990328,-8652.446522
210.108273,-3617.947771,823.130974,-9475.577496
210.110853,344.566454,76.570323,-8441.878133
210.113433,3101.098090,1454.836141,-8920.442653
210.116013,4709.074877,114.855485,-9360.722011
210.118593,-1205.982590,669.990328,-9399.007173
210.121173,-2258.824534,114.855485,-9035.298138
210.123753,363.709035,153.140646,-9265.009107
210.126333,1837.687757,708.275490,-9590.432981
210.128913,1895.115499,287.138712,-9169.296203
210.131493,-1875.972918,478.564520,-8537.591037
210.134073,-1531.406464,-267.996131,-9111.868461
210.136653,114.855485,765.703232,-9705.288466
210.139233,1741.974853,1512.263883,-9207.581365
210.141813,3637.090352,1454.836141,-8173.882002
210.144393,1397.408398,-861.416136,-9839.286531
210.146973,-3598.805190,-1263.410333,-9915.856854
210.149553,861.416136,95.712904,-8461.020714
210.152133,555.134843,899.701298,-8843.872330
210.154713,-2584.248408,-229.710970,-10068.997501
210.157293,3215.953574,1091.127106,-9533.005238
210.159873,1646.261949,1818.545176,-8997.012976
210.162453,153.140646,-593.420005,-9456.434915
210.165032,-516.849682,1052.841944,-9686.145885
210.167612,6068.198114,2373.680019,-8212.167163
210.170192,-229.710970,-382.851616,-8805.587168
210.172772,-1875.972918,535.992262,-8920.442653
210.175352,1129.412267,-535.992262,-9073.583299
210.177932,6699.903280,1512.263883,-9322.436850
210.180512,3196.810994,421.136778,-9418.149754
210.183093,631.705166,-267.996131,-8729.016845
210.185674,-765.703232,38.285162,-8671.589102
210.188255,6738.188442,-1014.556782,-8690.731683
210.190836,3139.383251,-1052.841944,-9054.440718
210.193417,-4670.789715,-2660.818731,-10394.421374
210.195998,4804.787781,1895.115499,-8288.737486
210.198579,5513.063270,2813.959378,-8882.157491
210.201160,1990.828403,306.281293,-9379.864592
210.203741,210.568389,153.140646,-9073.583299
210.206321,497.707101,669.990328,-8403.592971
210.208902,-1741.974853,-440.279358,-8958.727814
210.211483,3005.385186,918.843878,-9609.575562
210.214064,4039.084549,1167.697429,-8901.300072
210.216645,-1837.687757,287.138712,-9016.155557
210.219226,-2871.387120,-459.421939,-9686.145885
210.221807,2565.105827,-382.851616,-9150.153622
210.224388,3713.660675,765.703232,-9245.866526
210.226969,-287.138712,287.138712,-8997.012976
210.229550,-3062.812928,-267.996131,-9016.155557
210.232131,-535.992262,191.425808,-9131.011042
210.234712,1454.836141,669.990328,-10030.712339
210.237293,765.703232,1531.406464,-8690.731683
210.239874,3828.516160,1244.267752,-8633.303941
210.242455,727.418070,114.855485,-9092.725880
210.245035,-3637.090352,-1741.974853,-9590.432981
210.247616,1091.127106,1397.408398,-8384.450390
210.250197,1167.697429,-363.709035,-9054.440718
210.252778,-1320.838075,95.712904,-9801.001370
210.255359,2986.242605,765.703232,-8977.870395
210.257940,1588.834206,-229.710970,-8939.585234
210.260521,-38.285162,631.705166,-9743.573627
210.263102,2258.824534,689.132909,-9226.723946
210.265683,1588.834206,-440.279358,-8518.448456
210.268264,-325.423874,1627.119368,-8365.307810
210.270845,-382.851616,-19.142581,-9092.725880
210.273426,3503.092286,267.996131,-9303.294269
210.276007,6317.051664,2258.824534,-9092.725880
210.278588,1071.984525,-612.562586,-8958.727814
210.281168,-2163.111630,784.845813,-9456.434915
210.283749,708.275490,708.275490,-8059.026517
210.286330,10432.706536,1646.261949,-7657.032320
210.288912,172.283227,-3330.809059,-10049.854920
210.291493,-4134.797453,-4345.365842,-10528.419440
210.294074,4230.510357,344.566454,-8729.016845
210.296655,6967.899411,2660.818731,-8097.311678
210.299236,-287.138712,401.994197,-9437.292334
210.301817,-1129.412267,689.132909,-8901.300072
210.304398,1378.265818,172.283227,-8365.307810
210.306979,899.701298,421.136778,-9475.577496
210.309560,3924.229064,325.423874,-9341.579430
210.312142,784.845813,1722.832272,-8614.161360
210.314723,-2163.111630,-1033.699363,-9016.155557
210.317304,-708.275490,-153.140646,-9628.718142
210.319885,3981.656806,516.849682,-8939.585234
210.322466,574.277424,114.855485,-8748.159426
210.325047,-3158.525832,784.845813,-9016.155557
210.327628,-421.136778,-1186.840010,-9016.155557
210.330209,1397.408398,1378.265818,-9379.864592
210.332790,4326.223261,823.130974,-8977.870395
210.335372,57.427742,153.140646,-8977.870395
210.337953,-287.138712,-1091.127106,-9571.290400
210.340534,-1646.261949,-516.849682,-9418.149754
210.343115,803.988394,325.423874,-8690.731683
210.345696,1301.695494,1167.697429,-8882.157491
210.348277,57.427742,76.570323,-9303.294269
210.350858,-95.712904,421.136778,-9896.714274
210.353439,1607.976787,382.851616,-9054.440718
210.356020,3254.238736,574.277424,-8824.729749
210.358602,2335.394858,1091.127106,-9226.723946
210.361183,1263.410333,-210.568389,-8843.872330
210.363764,172.283227,1091.127106,-8365.307810
210.366345,-1416.550979,-401.994197,-9379.864592
210.368926,5685.346498,1129.412267,-8709.874264
210.371507,3809.373579,1129.412267,-9399.007173
210.374088,191.425808,-191.425808,-9188.438784
210.376669,-880.558717,861.416136,-8997.012976
210.379250,5589.633594,1531.406464,-8059.026517
210.381831,-287.138712,172.283227,-9590.432981
210.384413,-363.709035,-516.849682,-8939.585234
210.386994,5168.496816,1435.693560,-8767.302006
210.389575,3407.379382,459.421939,-9341.579430
210.392156,1244.267752,957.129040,-9341.579430
210.394738,3981.656806,918.843878,-8499.305875
210.397319,-1799.402595,-1148.554848,-8805.587168
210.399900,-210.568389,-516.849682,-9092.725880
210.402482,3541.377448,823.130974,-9360.722011
210.405063,2775.674216,516.849682,-8997.012976
210.407644,-1550.549045,1014.556782,-8939.585234
210.410226,-2277.967115,76.570323,-9628.718142
210.412807,1799.402595,-401.994197,-9418.149754
210.415388,4058.227130,1856.830338,-8939.585234
210.417970,-535.992262,-497.707101,-8709.874264
210.420551,-3349.951640,306.281293,-8939.585234
210.423132,861.416136,-631.705166,-9207.581365
210.425714,3637.090352,1186.840010,-8729.016845
210.428295,3579.662610,1225.125171,-8863.014910
210.430876,-918.843878,-1052.841944,-9743.573627
210.433458,-1493.121302,-631.705166,-9322.436850
210.436039,2143.969050,1339.980656,-8039.883936
210.438620,-1665.404530,114.855485,-9360.722011
210.441202,-1761.117434,-382.851616,-9360.722011
210.443783,4115.654872,2488.535504,-8480.163294
210.446364,-650.847747,689.132909,-9360.722011
210.448946,-267.996131,-669.990328,-9724.431046
210.451527,4153.940034,1071.984525,-8920.442653
210.454108,5015.356170,995.414202,-8595.018779
210.456690,-2124.826469,-38.285162,-8901.300072
210.459271,-1722.832272,0.000000,-8786.444587
210.461852,3522.234867,1129.412267,-8690.731683
210.464434,5206.781978,1205.982590,-9475.577496
210.467015,2909.672282,-210.568389,-8824.729749
210.469596,19.142581,727.418070,-9513.862658
210.472178,-1818.545176,1627.119368,-9073.583299
210.474759,6891.329088,1091.127106,-7791.030386
210.477340,4077.369710,-459.421939,-8288.737486
210.479922,-2239.681954,-2258.824534,-10222.138147
210.482503,784.845813,-229.710970,-9724.431046
210.485084,4670.789715,555.134843,-9092.725880
210.487666,4058.227130,497.707101,-8499.305875
210.490247,-1818.545176,784.845813,-9360.722011
210.492828,459.421939,-153.140646,-8595.018779
210.495409,1052.841944,976.271621,-8939.585234
210.497990,5781.059402,574.277424,-9016.155557
210.500571,-1493.121302,478.564520,-9456.434915
210.503152,-1780.260014,-114.855485,-8824.729749
210.505733,114.855485,-38.285162,-9437.292334
210.508315,3139.383251,1607.976787,-9245.866526
210.510896,842.273555,-689.132909,-9150.153622
210.513477,-1990.828403,765.703232,-8958.727814
210.516058,-1799.402595,-114.855485,-9111.868461
210.518639,-57.427742,440.279358,-9705.288466
210.521220,593.420005,1359.123237,-9360.722011
210.523801,1397.408398,1282.552914,-9054.440718
210.526382,-1244.267752,2775.674216,-9571.290400
210.528963,1378.265818,133.998066,-8461.020714
210.531544,-516.849682,421.136778,-8863.014910
210.534125,1205.982590,727.418070,-8729.016845
210.536706,-1148.554848,76.570323,-9456.434915
210.539287,2105.683888,555.134843,-9054.440718
210.541868,1780.260014,-344.566454,-9303.294269
210.544449,3062.812928,-95.712904,-9131.011042
210.547031,2890.529701,880.558717,-9418.149754
210.549612,1263.410333,-593.420005,-8843.872330
210.552193,-650.847747,1186.840010,-8288.737486
210.554774,-880.558717,-172.283227,-9303.294269
210.557355,4096.512291,459.421939,-9169.296203
210.559936,5379.065205,2009.970984,-9016.155557
210.562517,555.134843,267.996131,-8824.729749
210.565098,3120.240670,267.996131,-8173.882002
210.567679,-2182.254211,-803.988394,-10566.704602
210.570260,3924.229064,1799.402595,-7905.885870
210.572841,4058.227130,1990.828403,-7771.887805
210.575422,1320.838075,325.423874,-9973.284597
210.578003,746.560651,-1263.410333,-9820.143950
210.580584,6565.905214,2833.101958,-8307.880067
210.583166,2201.396792,765.703232,-8863.014910
210.585747,-4766.502619,-995.414202,-9571.290400
210.588328,2431.107762,1569.691626,-8920.442653
210.590909,7369.893608,555.134843,-8671.589102
210.593490,-765.703232,-516.849682,-9494.720077
210.596070,-4058.227130,459.421939,-9418.149754
210.598651,1990.828403,344.566454,-8786.444587
210.601232,1205.982590,1129.412267,-9743.573627
210.603813,1033.699363,-344.566454,-9437.292334
210.606393,1225.125171,440.279358,-8422.735552
210.608974,-3120.240670,880.558717,-9111.868461
210.611555,382.851616,-880.558717,-8920.442653
210.614136,3617.947771,-38.285162,-9341.579430
210.616717,1818.545176,-363.709035,-8882.157491
210.619298,-2067.398726,-1110.269686,-10011.569758
210.621878,-1014.556782,-669.990328,-9150.153622
210.624459,1244.267752,555.134843,-8709.874264
210.627040,1263.410333,1014.556782,-8958.727814
210.629621,-3713.660675,516.849682,-9877.571693
210.632202,3790.230998,1301.695494,-8441.878133
210.634783,899.701298,-172.283227,-9092.725880
210.637364,2928.814862,-516.849682,-9609.575562
210.639944,3024.527766,1014.556782,-9303.294269
210.642525,210.568389,-267.996131,-8767.302006
210.645106,-1569.691626,344.566454,-8652.446522
210.647687,1167.697429,153.140646,-8863.014910
210.650268,3235.096155,555.134843,-9647.860723
210.652849,4307.080680,3081.955509,-8882.157491
210.655430,727.418070,-19.142581,-8901.300072
210.658010,-1320.838075,727.418070,-9552.147819
210.660591,2105.683888,1205.982590,-8824.729749
210.663172,2584.248408,1722.832272,-8767.302006
210.665753,76.570323,1091.127106,-8958.727814
210.668334,4211.367776,1014.556782,-8939.585234
210.670915,4613.361973,1339.980656,-9035.298138
210.673495,1033.699363,306.281293,-9322.436850
210.676076,1780.260014,-172.283227,-8480.163294
210.678657,-1071.984525,191.425808,-9092.725880
210.681238,-287.138712,382.851616,-9284.151688
210.683819,6010.770371,842.273555,-8767.302006
210.686400,-765.703232,516.849682,-9322.436850
210.688981,-2526.820666,-287.138712,-8977.870395
210.691561,1550.549045,421.136778,-8997.012976
210.694142,1378.265818,382.851616,-9915.856854
210.696723,-382.851616,-746.560651,-9571.290400
210.699304,-1320.838075,325.423874,-8671.589102
210.701884,-937.986459,708.275490,-8939.585234
210.704465,3062.812928,133.998066,-8614.161360
210.707046,2450.250342,708.275490,-9513.862658
210.709626,-2143.969050,-957.129040,-9877.571693
210.712207,3828.516160,1359.123237,-8135.596840
210.714788,-708.275490,-267.996131,-9265.009107
210.717368,-4460.221326,-1741.974853,-9992.427178
210.719949,2603.390989,727.418070,-8537.591037
210.722530,3101.098090,1186.840010,-8633.303941
210.725110,-1339.980656,612.562586,-9533.005238
210.727691,1148.554848,-172.283227,-9494.720077
210.730272,2928.814862,574.277424,-9284.151688
210.732852,4957.928427,995.414202,-8671.589102
210.735433,-1167.697429,-191.425808,-8977.870395
210.738014,-1129.412267,248.853550,-8575.876198
210.740594,2507.678085,784.845813,-8709.874264
210.743175,4651.647134,574.277424,-9379.864592
210.745756,3541.377448,1148.554848,-9054.440718
210.748336,114.855485,248.853550,-9169.296203
210.750917,880.558717,516.849682,-9494.720077
210.753498,1225.125171,-210.568389,-9169.296203
210.756078,2603.390989,2048.256146,-8537.591037
210.758659,2545.963246,229.710970,-9226.723946
210.761240,1033.699363,-421.136778,-9667.003304
210.763820,4689.932296,1588.834206,-8939.585234
210.766401,4632.504554,19.142581,-8499.305875
210.768982,-2794.816797,-918.843878,-9609.575562
210.771562,-210.568389,612.562586,-8767.302006
210.774143,2163.111630,421.136778,-8920.442653
210.776724,4996.213589,593.420005,-8958.727814
210.779304,-2679.961312,-114.855485,-9265.009107
210.781885,-1454.836141,-191.425808,-9207.581365
210.784466,1761.117434,210.568389,-9245.866526
210.787046,2756.531635,1244.267752,-9399.007173
210.789627,421.136778,-746.560651,-9303.294269
210.792208,-2335.394858,1014.556782,-9073.583299
210.794788,-1512.263883,-287.138712,-9399.007173
210.797369,3981.656806,1588.834206,-8288.737486
210.799950,2928.814862,478.564520,-8556.733618
210.802511,5168.496816,363.709035,-8690.731683
210.805072,-4153.940034,-861.416136,-10068.997501
210.807633,-2086.541307,-1205.982590,-9131.011042
210.810194,3177.668413,1493.121302,-8250.452325
210.812756,-1244.267752,765.703232,-9418.149754
210.815317,727.418070,-191.425808,-9284.151688
210.817878,2584.248408,765.703232,-8805.587168
210.820439,1837.687757,133.998066,-9456.434915
210.823000,2699.103893,382.851616,-9303.294269
210.825562,3407.379382,689.132909,-8729.016845
210.828123,-1033.699363,555.134843,-8633.303941
210.830684,-708.275490,-631.705166,-9111.868461
210.833245,5321.637462,516.849682,-8901.300072
210.835806,4441.078746,1550.549045,-9322.436850
210.838367,1186.840010,-478.564520,-8729.016845
210.840929,1512.263883,631.705166,-8748.159426
210.843490,3560.520029,-1320.838075,-9226.723946
210.846051,3388.236802,-899.701298,-8709.874264
210.848612,-57.427742,-459.421939,-9169.296203
210.851173,1397.408398,-267.996131,-9207.581365
210.853734,3120.240670,1091.127106,-9265.009107
210.856296,4345.365842,1091.127106,-8824.729749
210.858857,2660.818731,325.423874,-8250.452325
210.861418,-2526.820666,382.851616,-9150.153622
210.863979,669.990328,-133.998066,-9169.296203
210.866540,6029.912952,1378.265818,-8805.587168
210.869102,-669.990328,267.996131,-9265.009107
210.871663,-3292.523898,-842.273555,-9111.868461
210.874224,1607.976787,-210.568389,-9265.009107
210.876785,2258.824534,1129.412267,-9686.145885
210.879346,708.275490,-976.271621,-9437.292334
210.881907,-593.420005,784.845813,-8901.300072
210.884469,880.558717,306.281293,-8269.594906
210.887030,3254.238736,-363.709035,-9667.003304
210.889591,-6240.481341,-746.560651,-10911.271056
210.892152,6144.768437,2584.248408,-7484.749093
210.894713,1627.119368,1818.545176,-9073.583299
210.897274,-6967.899411,-2967.100024,-10700.702667
210.899836,2603.390989,976.271621,-8288.737486
210.902397,2009.970984,-76.570323,-8767.302006
210.904960,-2545.963246,-1071.984525,-9858.429112
210.907524,-267.996131,1339.980656,-9284.151688
210.910087,5589.633594,421.136778,-8958.727814
210.912651,3924.229064,669.990328,-9150.153622
210.915215,880.558717,-631.705166,-9360.722011
210.917778,-1052.841944,1359.123237,-8422.735552
210.920342,957.129040,-114.855485,-8671.589102
210.922905,3388.236802,-191.425808,-9265.009107
210.925469,5053.641331,861.416136,-9284.151688
210.928032,1454.836141,-497.707101,-8901.300072
210.930596,-631.705166,497.707101,-9399.007173
210.933159,918.843878,823.130974,-9073.583299
210.935723,2086.541307,957.129040,-8614.161360
210.938287,2890.529701,2143.969050,-8346.165229
210.940850,4881.358104,708.275490,-8365.307810
210.943414,1741.974853,612.562586,-9762.716208
210.945977,1339.980656,-344.566454,-9245.866526
210.948541,4843.072942,1359.123237,-8116.454259
210.951104,-3426.521963,-842.273555,-9533.005238
210.953668,478.564520,631.705166,-9111.868461
210.956231,6317.051664,1052.841944,-8786.444587
210.958795,-823.130974,133.998066,-9322.436850
210.961359,-1990.828403,-650.847747,-8939.585234
210.963922,421.136778,-229.710970,-9399.007173
210.966486,2526.820666,1741.974853,-9399.007173
210.969049,1454.836141,114.855485,-9265.009107
210.971613,-2316.252277,-669.990328,-9207.581365
210.974176,-708.275490,976.271621,-8767.302006
210.976740,-1722.832272,191.425808,-9801.001370
210.979303,4823.930362,1646.261949,-8997.012976
210.981867,-1875.972918,114.855485,-9284.151688
210.984431,421.136778,957.129040,-8709.874264
210.986994,-210.568389,574.277424,-8939.585234
210.989558,1071.984525,-803.988394,-8977.870395
210.992121,-1741.974853,459.421939,-9418.149754
210.994685,1588.834206,-76.570323,-8843.872330
210.997248,880.558717,287.138712,-9379.864592
210.999812,3962.514226,-287.138712,-9437.292334
211.002375,3981.656806,631.705166,-9111.868461
211.004939,669.990328,-727.418070,-9169.296203
211.007486,-1282.552914,1033.699363,-8480.163294
211.010032,535.992262,-535.992262,-8767.302006
211.012579,3751.945837,1531.406464,-9379.864592
211.015125,6317.051664,918.843878,-8843.872330
211.017672,689.132909,-363.709035,-8250.452325
211.020219,153.140646,612.562586,-9590.432981
211.022765,861.416136,363.709035,-9245.866526
211.025312,4823.930362,1282.552914,-8001.598774
211.027858,-95.712904,957.129040,-9513.862658
211.030405,2526.820666,-459.421939,-9016.155557
211.032952,6546.762634,2297.109696,-8652.446522
211.035498,1493.121302,-133.998066,-9322.436850
211.038045,-612.562586,-344.566454,-8920.442653
211.040591,976.271621,95.712904,-8671.589102
211.043138,-727.418070,267.996131,-9781.858789
211.045685,2833.101958,325.423874,-8863.014910
211.048231,-669.990328,1263.410333,-8920.442653
211.050778,-2431.107762,-842.273555,-9513.862658
211.053324,727.418070,153.140646,-9399.007173
211.055871,4536.791650,899.701298,-9111.868461
211.058418,1071.984525,-516.849682,-8786.444587
211.060964,-3541.377448,382.851616,-9437.292334
211.063511,-76.570323,-153.140646,-8748.159426
211.066057,-1244.267752,248.853550,-9877.571693
211.068604,3483.949706,2220.539373,-8384.450390
211.071151,4077.369710,1722.832272,-8059.026517
211.073697,-1359.123237,210.568389,-9303.294269
211.076244,-3522.234867,-1244.267752,-9839.286531
211.078790,3081.955509,-191.425808,-8307.880067
211.081337,-803.988394,-555.134843,-9513.862658
211.083884,-1588.834206,937.986459,-9647.860723
211.086430,3005.385186,1225.125171,-8882.157491
211.088977,2392.822600,459.421939,-9533.005238
211.091524,4766.502619,1722.832272,-8786.444587
211.094070,-689.132909,-325.423874,-8958.727814
211.096617,-191.425808,612.562586,-8575.876198
211.099163,1282.552914,650.847747,-8977.870395
211.101710,6431.907149,1225.125171,-8748.159426
211.104257,2239.681954,957.129040,-8786.444587
211.106803,765.703232,-535.992262,-8767.302006
211.109354,1282.552914,459.421939,-9781.858789
211.111905,1148.554848,-555.134843,-9877.571693
211.114456,-459.421939,2029.113565,-8001.598774
211.117008,4096.512291,3158.525832,-8652.446522
211.119559,2450.250342,459.421939,-9245.866526
211.122110,2316.252277,325.423874,-9609.575562
211.124661,1761.117434,669.990328,-8518.448456
211.127212,-516.849682,-459.421939,-8729.016845
211.129763,-1531.406464,765.703232,-9513.862658
211.132314,6738.188442,995.414202,-8767.302006
211.134865,153.140646,-153.140646,-9016.155557
211.137416,-2871.387120,612.562586,-9399.007173
211.139968,-957.129040,-555.134843,-9265.009107
211.142519,2354.537438,1301.695494,-9533.005238
211.145070,1263.410333,401.994197,-9571.290400
211.147621,95.712904,-133.998066,-8767.302006
211.150172,-1665.404530,153.140646,-9226.723946
211.152723,4211.367776,765.703232,-8499.305875
211.155274,1990.828403,574.277424,-8824.729749
211.157825,2220.539373,-1684.547110,-9820.143950
211.160376,-2239.681954,-1454.836141,-9839.286531
211.162927,-899.701298,-803.988394,-9035.298138
211.165479,708.275490,1493.121302,-8843.872330
211.168030,-727.418070,382.851616,-9150.153622
211.170581,2890.529701,-459.421939,-8595.018779
211.173132,-478.564520,19.142581,-9686.145885
211.175683,3483.949706,-574.277424,-9226.723946
