#time,accel_x,accel_y,accel_z
152.426012,10510.924376,3552.988522,-71093.662214
152.428622,11251.130318,4737.318029,-70480.785816
152.431233,9326.594869,-31088.649564,-72472.634111
152.433843,11695.253884,-22058.137072,-70940.443115
152.436453,18505.148550,3701.029710,-67876.061123
152.439063,12435.459826,1184.329507,-70787.224015
152.441673,-4885.359217,-3404.947333,-77375.645298
152.444283,18505.148550,-4145.153275,-69408.252119
152.446893,19837.519246,-444.123565,-67722.842023
152.449527,-2220.617826,14359.995275,-72779.072310
152.452162,16136.489536,6365.771101,-68335.718422
152.454796,10658.965565,12139.377449,-72012.976812
152.457430,10658.965565,3701.029710,-71859.757712
152.460064,26055.249158,-9326.594869,-64964.898230
152.462699,-11991.336260,24130.713709,-77069.207099
152.465333,21910.095883,6513.812290,-66343.870127
152.467967,12435.459826,1184.329507,-71400.100414
152.470602,9770.718434,7698.141797,-71706.538613
152.473236,12583.501014,11547.212695,-70480.785816
152.475870,8882.471304,-592.164754,-72472.634111
152.478504,17320.819043,-1924.535449,-67416.403824
152.481139,-148.041188,15988.448347,-73391.948708
152.483773,15248.242405,12139.377449,-70021.128517
152.486407,14211.954086,6513.812290,-70480.785816
152.489041,3997.112087,17616.901420,-73391.948708
152.491676,20281.642811,20281.642811,-66343.870127
152.494310,7698.141797,-6069.688724,-71246.881314
152.496944,8290.306550,-1036.288319,-73238.729609
152.499579,9770.718434,-1184.329507,-70480.785816
152.502213,14063.912898,5625.565159,-68182.499322
152.504847,10362.883188,13619.789333,-72319.415011
152.507481,10510.924376,7254.018232,-69867.909418
152.510116,5773.606348,19985.560434,-72779.072310
152.512750,13471.748144,11399.171507,-70327.566716
152.515384,17764.942608,148.041188,-68488.937521
152.518018,8586.388927,12139.377449,-71246.881314
152.520653,2368.659014,10955.047942,-73851.606007
152.523287,25315.043216,-888.247130,-64045.583633
152.525921,4885.359217,3404.947333,-72472.634111
152.528556,1332.370696,7846.182985,-75537.016103
152.531190,23538.548956,11695.253884,-66343.870127
152.533824,7105.977043,12435.459826,-70787.224015
152.536458,12139.377449,8290.306550,-71706.538613
152.539093,8586.388927,-1924.535449,-74617.701505
152.541727,12583.501014,9474.636058,-68488.937521
152.544361,3849.070898,16136.489536,-70327.566716
152.546995,10214.842000,5329.482782,-71246.881314
152.549630,21910.095883,-11695.253884,-69561.471218
152.552264,10510.924376,-9030.512492,-68642.156621
152.554906,-444.123565,-4293.194464,-72932.291410
152.557549,7846.182985,5181.441594,-72166.195912
152.560191,21614.013506,9770.718434,-68182.499322
152.562834,9178.553681,10807.006753,-69101.813920
152.565476,5181.441594,-5477.523971,-72779.072310
152.568118,9474.636058,-8438.347739,-72932.291410
152.570761,18505.148550,1776.494261,-69714.690318
152.573403,9770.718434,2072.576638,-69408.252119
152.576046,4737.318029,-3849.070898,-70787.224015
152.578688,6513.812290,13767.830521,-73545.167808
152.581330,14804.118840,-1776.494261,-70021.128517
152.583973,11399.171507,-5773.606348,-71859.757712
152.586615,12287.418637,2812.782580,-69561.471218
152.589258,13767.830521,296.082377,-70940.443115
152.591900,4589.276840,-4737.318029,-73545.167808
152.594542,7105.977043,11547.212695,-70940.443115
152.597185,17024.736666,13471.748144,-69867.909418
152.599827,9030.512492,1184.329507,-73238.729609
152.602470,7994.224174,1036.288319,-71400.100414
152.605112,8586.388927,9622.677246,-71246.881314
152.607754,14063.912898,-16432.571912,-69714.690318
152.610397,8438.347739,-11399.171507,-71706.538613
152.613039,14359.995275,14211.954086,-70940.443115
152.615682,9030.512492,-3701.029710,-70021.128517
152.618324,8586.388927,-888.247130,-71859.757712
152.620966,11251.130318,3108.864956,-70327.566716
152.623609,19393.395680,-8734.430116,-68029.280222
152.626251,-5773.606348,-3552.988522,-76456.330700
152.628894,23686.590144,740.205942,-66037.431928
152.631536,8734.430116,296.082377,-70787.224015
152.634178,-2368.659014,296.082377,-75230.577904
152.636821,30200.402434,0.000000,-65424.555529
152.639463,10362.883188,10955.047942,-72625.853210
152.642106,-2664.741391,4737.318029,-74158.044206
152.644748,12879.583391,-5033.400406,-70174.347617
152.647390,20873.807564,-592.164754,-69714.690318
152.650033,13619.789333,-3256.906145,-73851.606007
152.652675,296.082377,12879.583391,-72012.976812
152.655318,9622.677246,14508.036463,-66037.431928
152.657960,10066.800811,2516.700203,-72166.195912
152.660605,9918.759623,19541.436869,-72779.072310
152.663249,11991.336260,1924.535449,-70940.443115
152.665894,7698.141797,3849.070898,-68335.718422
152.668539,11251.130318,20429.683999,-68335.718422
152.671183,8438.347739,1036.288319,-74464.482406
152.673828,1776.494261,4441.235652,-74311.263306
152.676472,16432.571912,10807.006753,-68335.718422
152.679117,17024.736666,12139.377449,-70174.347617
152.681762,4293.194464,10955.047942,-73391.948708
152.684406,17616.901420,3108.864956,-66190.651027
152.687051,-5181.441594,9326.594869,-74311.263306
152.689695,21910.095883,10066.800811,-67263.184724
152.692340,10362.883188,5625.565159,-71706.538613
152.694985,2960.823768,11991.336260,-73545.167808
152.697629,20133.601622,34345.555709,-66343.870127
152.700274,20725.766376,16284.530724,-69408.252119
152.702919,6661.853478,-2960.823768,-72472.634111
152.705563,5625.565159,4589.276840,-72166.195912
152.708208,14063.912898,-20281.642811,-70787.224015
152.710852,3108.864956,1776.494261,-72625.853210
152.713497,25611.125593,31384.731941,-64198.802732
152.716142,-740.205942,3701.029710,-75383.797003
152.718786,8290.306550,15396.283594,-71706.538613
152.721431,28423.908173,10955.047942,-64198.802732
152.724075,-3108.864956,-2516.700203,-74770.920605
152.726720,11695.253884,-2220.617826,-69867.909418
152.729365,16136.489536,3701.029710,-70174.347617
152.732009,-1036.288319,10066.800811,-74617.701505
152.734654,19689.478057,12731.542202,-65884.212828
152.737298,3997.112087,1776.494261,-73391.948708
152.739943,19689.478057,-1776.494261,-71093.662214
152.742588,-296.082377,20725.766376,-73085.510509
152.745232,3849.070898,20281.642811,-70174.347617
152.747877,25759.166782,6217.729913,-65730.993728
152.750522,-3108.864956,-16284.530724,-79980.369991
152.753166,19245.354492,-10807.006753,-76609.549800
152.755811,27387.619854,8586.388927,-60674.763442
152.758455,2516.700203,5033.400406,-75077.358804
152.761100,5921.647536,5181.441594,-74311.263306
152.763745,28571.949361,592.164754,-64505.240932
152.766388,4885.359217,-7550.100608,-72625.853210
152.769032,1036.288319,-3404.947333,-75537.016103
152.771675,19837.519246,4589.276840,-68795.375720
152.774319,21465.972318,12583.501014,-66956.746525
152.776962,-6957.935855,2220.617826,-74004.825107
152.779606,3404.947333,-3404.947333,-73851.606007
152.782249,19245.354492,-2072.576638,-69561.471218
152.784893,18209.066173,148.041188,-67263.184724
152.787536,1776.494261,5033.400406,-72932.291410
152.790180,4441.235652,-592.164754,-74464.482406
152.792824,22946.384202,5625.565159,-67109.965625
152.795467,9918.759623,30792.567187,-70327.566716
152.798111,4589.276840,-3404.947333,-71859.757712
152.800754,11843.295072,-11103.089130,-72012.976812
152.803398,9770.718434,13915.871710,-73085.510509
152.806041,14508.036463,16876.695478,-67569.622924
152.808685,15248.242405,29164.114115,-68642.156621
152.811328,5477.523971,6365.771101,-73851.606007
152.813972,5033.400406,-13619.789333,-72319.415011
152.816615,18357.107362,3404.947333,-66497.089226
152.819259,12731.542202,3701.029710,-70480.785816
152.821902,-3108.864956,148.041188,-76915.987999
152.824546,20133.601622,12287.418637,-68335.718422
152.827190,15692.365970,2960.823768,-68795.375720
152.829833,-740.205942,-21021.848753,-75537.016103
152.832477,6809.894666,-740.205942,-73851.606007
152.835120,21465.972318,2664.741391,-68029.280222
152.837764,9178.553681,-1036.288319,-68182.499322
152.840407,-3108.864956,3108.864956,-74617.701505
152.843051,17912.983796,3701.029710,-70634.004916
152.845694,22502.260637,6661.853478,-70174.347617
152.848338,11399.171507,21762.054695,-70940.443115
152.850981,-3404.947333,-3701.029710,-70174.347617
152.853625,4737.318029,-8586.388927,-71093.662214
152.856268,28127.825796,444.123565,-66650.308326
152.858912,7698.141797,4737.318029,-74004.825107
152.861556,296.082377,16580.613101,-73085.510509
152.864199,16136.489536,7254.018232,-66037.431928
152.866843,15100.201217,10510.924376,-68948.594820
152.869486,4737.318029,8734.430116,-74158.044206
152.872124,14211.954086,7550.100608,-69408.252119
152.874763,13767.830521,13619.789333,-69867.909418
152.877401,16876.695478,6365.771101,-70480.785816
152.880039,444.123565,9918.759623,-72932.291410
152.882677,11103.089130,7254.018232,-68335.718422
152.885315,16136.489536,6069.688724,-69101.813920
152.887953,5329.482782,14656.077652,-72625.853210
152.890592,9918.759623,34493.596897,-70327.566716
152.893230,14063.912898,-6809.894666,-68488.937521
152.895868,9030.512492,7698.141797,-72012.976812
152.898506,11843.295072,444.123565,-72319.415011
152.901144,10955.047942,-3108.864956,-70327.566716
152.903783,15100.201217,25018.960840,-69255.033019
152.906421,7105.977043,5329.482782,-71859.757712
152.909059,3404.947333,3701.029710,-72779.072310
152.911697,22502.260637,10955.047942,-66650.308326
152.914335,9326.594869,7994.224174,-68335.718422
152.916974,888.247130,6365.771101,-72319.415011
152.919612,15248.242405,3997.112087,-70940.443115
152.922250,15100.201217,11103.089130,-70021.128517
152.924888,11103.089130,8882.471304,-71246.881314
152.927526,5329.482782,8586.388927,-72472.634111
152.930164,15544.324782,-1924.535449,-69561.471218
152.932803,19837.519246,11251.130318,-71553.319513
152.935441,-3256.906145,20429.683999,-74004.825107
152.938079,13767.830521,4145.153275,-65730.993728
152.940717,6661.853478,11991.336260,-70021.128517
152.943355,25463.084405,-5329.482782,-68182.499322
152.945994,9178.553681,-3997.112087,-71400.100414
152.948632,-6957.935855,10658.965565,-75230.577904
152.951270,26203.290347,-1184.329507,-66037.431928
152.953908,8586.388927,5181.441594,-71859.757712
152.956546,9030.512492,-5921.647536,-72932.291410
152.959185,11103.089130,-444.123565,-70634.004916
152.961823,11843.295072,3108.864956,-70940.443115
152.964461,15396.283594,-2664.741391,-70787.224015
152.967099,5329.482782,6217.729913,-71859.757712
152.969737,7254.018232,-888.247130,-69255.033019
152.972375,12731.542202,-1184.329507,-70021.128517
152.975014,18653.189738,-296.082377,-68795.375720
152.977646,13471.748144,148.041188,-72012.976812
152.980279,1776.494261,-3552.988522,-73851.606007
152.982912,14063.912898,-9474.636058,-69408.252119
152.985545,11547.212695,14359.995275,-71400.100414
152.988178,4589.276840,13027.624579,-72166.195912
152.990811,15840.407159,12435.459826,-69714.690318
152.993444,10066.800811,296.082377,-71093.662214
152.996076,11103.089130,-1924.535449,-69408.252119
152.998709,17912.983796,11251.130318,-69561.471218
153.001342,9474.636058,16284.530724,-72932.291410
153.003975,11695.253884,-16580.613101,-70327.566716
153.006608,4441.235652,3997.112087,-71859.757712
153.009241,16728.654289,1184.329507,-67722.842023
153.011874,12435.459826,-8438.347739,-71246.881314
153.014506,3701.029710,6217.729913,-75077.358804
153.017139,20873.807564,2220.617826,-66650.308326
153.019772,2368.659014,-1776.494261,-72166.195912
153.022405,13915.871710,4145.153275,-71706.538613
153.025038,15396.283594,13767.830521,-69408.252119
153.027671,-444.123565,-148.041188,-71553.319513
153.030304,12139.377449,-11547.212695,-70021.128517
153.032936,13619.789333,-5625.565159,-72472.634111
153.035569,20133.601622,6513.812290,-71246.881314
153.038202,16284.530724,30200.402434,-66650.308326
153.040835,-3552.988522,3108.864956,-71400.100414
153.043468,-1480.411884,-17616.901420,-73851.606007
153.046101,30052.361245,592.164754,-64505.240932
153.048734,17320.819043,5329.482782,-69867.909418
153.051366,-5033.400406,-2812.782580,-74617.701505
153.053999,7550.100608,18061.024985,-70480.785816
153.056632,16580.613101,14359.995275,-69101.813920
153.059265,8882.471304,5033.400406,-71400.100414
153.061898,14359.995275,5181.441594,-70480.785816
153.064531,11843.295072,2220.617826,-72319.415011
153.067164,7254.018232,10362.883188,-74158.044206
153.069796,12287.418637,14211.954086,-68795.375720
153.072429,11103.089130,11399.171507,-68948.594820
153.075062,7698.141797,-3404.947333,-72932.291410
153.077695,11695.253884,1184.329507,-72012.976812
153.080328,10214.842000,20133.601622,-71093.662214
153.082953,16284.530724,6957.935855,-67569.622924
153.085578,10807.006753,-2072.576638,-72319.415011
153.088202,8438.347739,12583.501014,-74464.482406
153.090827,11251.130318,-10658.965565,-69867.909418
153.093452,11103.089130,11103.089130,-69561.471218
153.096077,19097.313304,24574.837274,-68182.499322
153.098702,740.205942,1776.494261,-74004.825107
153.101326,12731.542202,5625.565159,-69408.252119
153.103951,12435.459826,7105.977043,-68948.594820
153.106576,-888.247130,4293.194464,-75230.577904
153.109201,15840.407159,2368.659014,-69101.813920
153.111826,18505.148550,13471.748144,-68335.718422
153.114451,1036.288319,19689.478057,-75077.358804
153.117075,21614.013506,-1776.494261,-69255.033019
153.119700,14063.912898,-13767.830521,-71246.881314
153.122325,-5033.400406,23242.466579,-73545.167808
153.124950,14063.912898,13027.624579,-67876.061123
153.127575,16432.571912,11843.295072,-67263.184724
153.130200,3849.070898,-3701.029710,-74770.920605
153.132824,-2664.741391,-6217.729913,-76609.549800
153.135449,10658.965565,15988.448347,-67876.061123
153.138074,18505.148550,9326.594869,-68182.499322
153.140699,6365.771101,-444.123565,-72779.072310
153.143324,15692.365970,-888.247130,-69408.252119
153.145948,12583.501014,-9918.759623,-70480.785816
153.148573,9326.594869,-8586.388927,-71859.757712
153.151198,13619.789333,11695.253884,-72166.195912
153.153823,9030.512492,6513.812290,-71400.100414
153.156448,1332.370696,4737.318029,-70021.128517
153.159073,17764.942608,-9474.636058,-68335.718422
153.161697,27387.619854,-2072.576638,-67263.184724
153.164322,-2812.782580,-7550.100608,-75690.235202
153.166947,5625.565159,3997.112087,-73085.510509
153.169572,25907.207970,25759.166782,-64198.802732
153.172197,7846.182985,-15396.283594,-70940.443115
153.174822,296.082377,-3108.864956,-74464.482406
153.177446,14359.995275,6957.935855,-69867.909418
153.180071,15100.201217,-3256.906145,-68642.156621
153.182696,7105.977043,24870.919651,-72319.415011
153.185321,13915.871710,11991.336260,-70327.566716
153.187938,8142.265362,-6661.853478,-71246.881314
153.190556,6513.812290,-11103.089130,-72166.195912
153.193174,15988.448347,9030.512492,-67876.061123
153.195792,10214.842000,1480.411884,-70940.443115
153.198410,9030.512492,4441.235652,-72319.415011
153.201028,13471.748144,4589.276840,-69714.690318
153.203646,6513.812290,-2960.823768,-71553.319513
153.206264,18653.189738,-10807.006753,-68642.156621
153.208882,13175.665768,10362.883188,-70021.128517
153.211500,-444.123565,14804.118840,-71400.100414
153.214118,11103.089130,-296.082377,-70634.004916
153.216736,24574.837274,-7105.977043,-69561.471218
153.219354,18357.107362,-14063.912898,-70787.224015
153.221972,-8882.471304,9326.594869,-74617.701505
153.224591,11251.130318,27683.702231,-65271.336430
153.227209,18209.066173,4293.194464,-68182.499322
153.229827,1184.329507,18357.107362,-76762.768900
153.232445,17912.983796,5181.441594,-68182.499322
153.235063,10807.006753,-5033.400406,-67263.184724
153.237681,2368.659014,10955.047942,-72625.853210
153.240299,19097.313304,6069.688724,-69561.471218
153.242917,7402.059420,-4145.153275,-72779.072310
153.245535,7402.059420,15396.283594,-73085.510509
153.248153,27535.661042,10362.883188,-66037.431928
153.250771,1924.535449,9030.512492,-73698.386908
153.253389,4737.318029,13471.748144,-71553.319513
153.256007,15692.365970,10066.800811,-66497.089226
153.258625,11251.130318,9178.553681,-70787.224015
153.261243,11103.089130,18061.024985,-72319.415011
153.263861,12139.377449,-444.123565,-68795.375720
153.266479,4441.235652,-1332.370696,-71553.319513
153.269097,13619.789333,6069.688724,-71400.100414
153.271710,17024.736666,-17764.942608,-68335.718422
153.274323,-296.082377,-1924.535449,-74464.482406
153.276936,14508.036463,30200.402434,-69867.909418
153.279548,20133.601622,2664.741391,-67416.403824
153.282161,-4145.153275,8290.306550,-75383.797003
153.284774,16284.530724,10362.883188,-68029.280222
153.287387,16580.613101,3256.906145,-68795.375720
153.290000,3256.906145,3701.029710,-74311.263306
153.292613,18061.024985,13175.665768,-67876.061123
153.295225,13323.706956,15692.365970,-71400.100414
153.297838,10066.800811,6069.688724,-74770.920605
153.300451,15988.448347,11991.336260,-65884.212828
153.303064,3404.947333,6365.771101,-70021.128517
153.305677,5033.400406,-6217.729913,-72932.291410
153.308290,17172.777854,6069.688724,-67876.061123
153.310902,21465.972318,-16580.613101,-68182.499322
153.313515,-13323.706956,1480.411884,-79827.150892
153.316128,20281.642811,17616.901420,-66956.746525
153.318741,17912.983796,-4441.235652,-69101.813920
153.321354,-2664.741391,-5625.565159,-73545.167808
153.323967,9178.553681,3701.029710,-73545.167808
153.326579,13619.789333,2220.617826,-71093.662214
153.329192,12583.501014,-3108.864956,-70021.128517
153.331805,15248.242405,-5921.647536,-70174.347617
153.334418,-444.123565,1184.329507,-73391.948708
153.337031,11399.171507,-1776.494261,-69255.033019
153.339644,14063.912898,5181.441594,-70021.128517
153.342256,16432.571912,-4885.359217,-72012.976812
153.344869,5921.647536,4441.235652,-72625.853210
153.347482,9178.553681,5033.400406,-70940.443115
153.350095,17764.942608,-1332.370696,-67722.842023
153.352708,8142.265362,-7402.059420,-72166.195912
153.355321,6957.935855,1332.370696,-71706.538613
153.357933,14063.912898,-20873.807564,-68948.594820
153.360546,12731.542202,22650.301825,-71706.538613
153.363159,9918.759623,22354.219448,-71859.757712
153.365772,7105.977043,-21021.848753,-71553.319513
153.368385,7846.182985,296.082377,-72319.415011
153.370998,22946.384202,1776.494261,-68182.499322
153.373610,2220.617826,-12287.418637,-73851.606007
153.376216,148.041188,-1776.494261,-74770.920605
153.378822,27979.784608,3108.864956,-64658.460031
153.381427,888.247130,2072.576638,-74924.139704
153.384033,10066.800811,3108.864956,-72012.976812
153.386638,14508.036463,-6217.729913,-66343.870127
153.389244,-592.164754,296.082377,-73391.948708
153.391850,13323.706956,-1628.453072,-72166.195912
153.394455,12731.542202,15248.242405,-73085.510509
153.397061,29016.072926,19097.313304,-63432.707234
153.399667,-10510.924376,-15544.324782,-74770.920605
153.402272,-17616.901420,-26499.372724,-80440.027290
153.404878,31532.773129,7698.141797,-67416.403824
153.407484,22206.178260,6661.853478,-66650.308326
153.410089,-1036.288319,8142.265362,-73391.948708
153.412695,7698.141797,12287.418637,-70787.224015
153.415300,9474.636058,9030.512492,-70787.224015
153.417906,22798.343014,4885.359217,-66650.308326
153.420512,1924.535449,10658.965565,-75383.797003
153.423117,12435.459826,4589.276840,-70174.347617
153.425723,22206.178260,10658.965565,-68029.280222
153.428329,5921.647536,444.123565,-72625.853210
153.430934,-740.205942,-2812.782580,-72779.072310
153.433540,7698.141797,10658.965565,-72166.195912
153.436145,17616.901420,28275.866984,-69408.252119
153.438751,7994.224174,10066.800811,-71400.100414
153.441357,8142.265362,148.041188,-70634.004916
153.443962,10955.047942,-888.247130,-71553.319513
153.446568,13619.789333,-14063.912898,-70634.004916
153.449174,8438.347739,19393.395680,-71706.538613
153.451779,13027.624579,29460.196492,-70174.347617
153.454385,8438.347739,0.000000,-72012.976812
153.456990,8734.430116,14359.995275,-72012.976812
153.459596,13915.871710,6809.894666,-68182.499322
153.462202,9770.718434,4441.235652,-71093.662214
153.464807,11843.295072,6809.894666,-70787.224015
153.467413,15988.448347,8586.388927,-68948.594820
153.470019,4293.194464,13175.665768,-75537.016103
153.472624,18949.272115,0.000000,-69714.690318
153.475230,10658.965565,5329.482782,-68029.280222
153.477836,-7105.977043,13027.624579,-75996.673402
153.480436,23686.590144,6217.729913,-66803.527426
153.483036,26203.290347,148.041188,-66803.527426
153.485636,-7105.977043,2664.741391,-78141.740796
153.488236,10362.883188,3108.864956,-68795.375720
153.490836,18061.024985,5625.565159,-68795.375720
153.493436,6217.729913,2072.576638,-73238.729609
153.496036,17172.777854,-2220.617826,-68642.156621
153.498636,12435.459826,-9918.759623,-71246.881314
153.501236,1628.453072,4293.194464,-74311.263306
153.503836,15988.448347,12583.501014,-69255.033019
153.506436,16284.530724,-1332.370696,-67876.061123
153.509036,-4293.194464,-4589.276840,-74004.825107
153.511636,5477.523971,-1184.329507,-72319.415011
153.514236,18801.230927,-592.164754,-70480.785816
153.516836,17616.901420,8734.430116,-68182.499322
153.519436,6069.688724,16580.613101,-71859.757712
153.522036,9622.677246,11399.171507,-70787.224015
153.524636,18061.024985,4145.153275,-68795.375720
153.527236,4441.235652,6069.688724,-71859.757712
153.529837,9030.512492,-4145.153275,-70174.347617
153.532437,12139.377449,31680.814318,-70634.004916
153.535037,9622.677246,16432.571912,-72625.853210
153.537637,4293.194464,0.000000,-71706.538613
153.540237,11547.212695,-8882.471304,-69101.813920
153.542837,22058.137072,-10214.842000,-68488.937521
153.545437,4145.153275,-4441.235652,-74158.044206
153.548037,9178.553681,4737.318029,-72166.195912
153.550637,16136.489536,1036.288319,-69867.909418
153.553237,12731.542202,-8586.388927,-70634.004916
153.555837,10807.006753,2812.782580,-70174.347617
153.558437,2072.576638,9326.594869,-70940.443115
153.561037,9030.512492,2220.617826,-71553.319513
153.563637,11399.171507,9918.759623,-74158.044206
153.566237,25907.207970,7698.141797,-66803.527426
153.568837,-4293.194464,7254.018232,-72779.072310
153.571437,5921.647536,592.164754,-69408.252119
153.574037,12879.583391,3849.070898,-71246.881314
153.576637,11695.253884,30644.525999,-73698.386908
153.579237,20133.601622,-6365.771101,-68182.499322
153.581838,3997.112087,-5477.523971,-71400.100414
153.584366,888.247130,14211.954086,-72932.291410
153.586894,19985.560434,16876.695478,-67722.842023
153.589422,9474.636058,18061.024985,-70634.004916
153.591950,10362.883188,17172.777854,-72166.195912
153.594478,16136.489536,4145.153275,-69714.690318
153.597006,6069.688724,-1036.288319,-71553.319513
153.599534,13767.830521,2516.700203,-69255.033019
153.602062,4885.359217,3552.988522,-72625.853210
153.604590,17024.736666,16136.489536,-69561.471218
153.607119,9474.636058,13767.830521,-71400.100414
153.609647,8142.265362,-2220.617826,-72472.634111
153.612175,8586.388927,22650.301825,-71093.662214
153.614703,19245.354492,26647.413912,-68335.718422
153.617231,21465.972318,2072.576638,-66956.746525
153.619759,-6513.812290,3849.070898,-77835.302597
153.622287,20873.807564,7254.018232,-67569.622924
153.624815,10362.883188,-1628.453072,-70634.004916
153.627343,5921.647536,6809.894666,-72779.072310
153.629872,17320.819043,7105.977043,-67416.403824
153.632400,3256.906145,7994.224174,-73851.606007
153.634928,18209.066173,13323.706956,-69561.471218
153.637456,17320.819043,11695.253884,-70634.004916
153.639984,1480.411884,-8438.347739,-73545.167808
153.642512,22354.219448,-8734.430116,-67722.842023
153.645040,23538.548956,9178.553681,-63892.364533
153.647568,-10362.883188,-5181.441594,-79367.493593
153.650096,23390.507767,-9918.759623,-67722.842023
153.652624,12435.459826,18209.066173,-70787.224015
153.655153,-4737.318029,10658.965565,-75230.577904
153.657681,15396.283594,-9474.636058,-68948.594820
153.660209,14211.954086,-5329.482782,-69714.690318
153.662737,11547.212695,9030.512492,-72166.195912
153.665265,11251.130318,-3256.906145,-70327.566716
153.667793,11399.171507,888.247130,-72012.976812
153.670321,14656.077652,2516.700203,-70174.347617
153.672849,6217.729913,2516.700203,-70787.224015
153.675377,2072.576638,-888.247130,-72166.195912
153.677905,15692.365970,-5625.565159,-71093.662214
153.680434,17468.860231,-148.041188,-71553.319513
153.682962,4885.359217,4145.153275,-74311.263306
153.685503,10510.924376,25463.084405,-71093.662214
153.688044,21021.848753,-2960.823768,-65424.555529
153.690585,4441.235652,-7846.182985,-73391.948708
153.693126,5181.441594,-2368.659014,-73851.606007
153.695667,16136.489536,-10658.965565,-69101.813920
153.698208,10510.924376,2516.700203,-71246.881314
153.700749,6809.894666,1628.453072,-71706.538613
153.703290,10658.965565,-888.247130,-71093.662214
153.705831,14211.954086,-3849.070898,-70940.443115
153.708372,10214.842000,-7698.141797,-72472.634111
153.710913,9030.512492,1924.535449,-72012.976812
153.713454,11695.253884,4145.153275,-70480.785816
153.715994,9770.718434,2368.659014,-72166.195912
153.718535,14211.954086,1184.329507,-68182.499322
153.721076,14952.160028,-4441.235652,-65884.212828
153.723617,4293.194464,-2368.659014,-75537.016103
153.726158,14804.118840,2220.617826,-73851.606007
153.728699,28719.990550,11991.336260,-64505.240932
153.731240,-7254.018232,16284.530724,-73391.948708
153.733781,-3701.029710,1184.329507,-73851.606007
153.736322,27387.619854,-9770.718434,-67263.184724
153.738863,21169.889941,11399.171507,-70787.224015
153.741404,-3404.947333,12731.542202,-76149.892501
153.743945,5181.441594,0.000000,-69561.471218
153.746486,17320.819043,4145.153275,-67416.403824
153.749027,26499.372724,2220.617826,-63585.926334
153.751568,-6809.894666,296.082377,-78907.836294
153.754109,12879.583391,19097.313304,-72012.976812
153.756650,29460.196492,15396.283594,-64658.460031
153.759191,-2516.700203,148.041188,-74464.482406
153.761732,7698.141797,296.082377,-70787.224015
153.764273,16432.571912,-10362.883188,-69867.909418
153.766814,10066.800811,22058.137072,-72779.072310
153.769355,13323.706956,14508.036463,-69714.690318
153.771896,11843.295072,296.082377,-69408.252119
153.774437,7105.977043,-13323.706956,-74464.482406
153.776978,15248.242405,-6217.729913,-69408.252119
153.779519,11695.253884,17172.777854,-69561.471218
153.782060,11991.336260,15396.283594,-70787.224015
153.784601,6069.688724,3404.947333,-73238.729609
153.787153,12435.459826,7550.100608,-68795.375720
153.789705,13323.706956,3404.947333,-69101.813920
153.792256,6661.853478,6365.771101,-72779.072310
153.794808,12435.459826,9622.677246,-71246.881314
153.797360,21762.054695,11695.253884,-67263.184724
153.799912,17468.860231,8882.471304,-66343.870127
153.802463,-1628.453072,5477.523971,-73238.729609
153.805015,6809.894666,4737.318029,-71246.881314
153.807567,18949.272115,-14211.954086,-67876.061123
153.810119,24130.713709,-13471.748144,-68029.280222
153.812670,-12139.377449,18801.230927,-79827.150892
153.815222,15100.201217,4145.153275,-67569.622924
153.817774,20429.683999,1036.288319,-67109.965625
153.820326,740.205942,-14508.036463,-75077.358804
153.822877,12287.418637,5181.441594,-71400.100414
153.825429,19393.395680,12731.542202,-67722.842023
153.827981,17912.983796,-6365.771101,-69255.033019
153.830532,740.205942,2664.741391,-75996.673402
153.833084,11251.130318,-3256.906145,-68335.718422
153.835636,11399.171507,-12879.583391,-68948.594820
153.838188,8142.265362,15692.365970,-74464.482406
153.840739,11547.212695,1480.411884,-73698.386908
153.843291,13619.789333,12879.583391,-69255.033019
153.845843,9770.718434,10066.800811,-69714.690318
153.848395,13619.789333,-9326.594869,-70940.443115
153.850946,4145.153275,-3701.029710,-73085.510509
153.853498,5181.441594,8438.347739,-71246.881314
153.856050,17320.819043,-2072.576638,-69714.690318
153.858602,10955.047942,-15396.283594,-72166.195912
153.861153,9474.636058,4441.235652,-70480.785816
153.863705,3701.029710,2220.617826,-72779.072310
153.866257,22058.137072,-9770.718434,-70021.128517
153.868809,11251.130318,-9918.759623,-71859.757712
153.871360,3849.070898,9622.677246,-73238.729609
153.873912,19837.519246,5033.400406,-67876.061123
153.876464,11547.212695,-1924.535449,-68335.718422
153.879016,296.082377,6809.894666,-71706.538613
153.881567,11695.253884,1184.329507,-71553.319513
153.884119,16876.695478,-8734.430116,-71706.538613
153.886671,17172.777854,12583.501014,-70940.443115
153.889229,-3997.112087,6957.935855,-71093.662214
153.891787,10066.800811,-592.164754,-65884.212828
153.894346,15544.324782,5033.400406,-72625.853210
153.896904,10658.965565,16136.489536,-73545.167808
153.899462,14359.995275,-1184.329507,-70174.347617
153.902021,7105.977043,17764.942608,-69867.909418
153.904579,19393.395680,9770.718434,-65730.993728
153.907137,5033.400406,14804.118840,-73085.510509
153.909695,4885.359217,19245.354492,-72472.634111
153.912254,26203.290347,3701.029710,-66650.308326
153.914812,6661.853478,148.041188,-74004.825107
153.917370,9326.594869,4441.235652,-70634.004916
153.919928,10214.842000,10362.883188,-68642.156621
153.922487,4441.235652,29608.237680,-73085.510509
153.925045,20577.725188,9326.594869,-68335.718422
153.927603,9622.677246,-1036.288319,-70021.128517
153.930162,6069.688724,5033.400406,-72932.291410
153.932720,17616.901420,-19393.395680,-68488.937521
153.935278,5625.565159,18801.230927,-70787.224015
153.937836,11251.130318,38194.626607,-70480.785816
153.940395,15100.201217,-3552.988522,-69867.909418
153.942953,6069.688724,-2664.741391,-73545.167808
153.945511,14804.118840,1036.288319,-68335.718422
153.948070,9178.553681,13915.871710,-70021.128517
153.950628,13471.748144,9918.759623,-70787.224015
153.953186,9918.759623,7254.018232,-73698.386908
153.955744,8586.388927,17320.819043,-70940.443115
153.958303,-296.082377,14656.077652,-71553.319513
153.960861,14063.912898,3256.906145,-67416.403824
153.963419,12139.377449,10955.047942,-69561.471218
153.965978,16136.489536,-10807.006753,-69561.471218
153.968536,1776.494261,-5181.441594,-75996.673402
153.971094,11251.130318,20725.766376,-69867.909418
153.973652,21169.889941,-10214.842000,-66497.089226
153.976211,-3997.112087,148.041188,-75537.016103
153.978769,20873.807564,3552.988522,-68488.937521
153.981327,11695.253884,-12287.418637,-72012.976812
153.983885,1628.453072,-2220.617826,-74311.263306
153.986444,15692.365970,3256.906145,-70480.785816
153.989002,9770.718434,-2072.576638,-69408.252119
153.991566,4589.276840,-444.123565,-70174.347617
153.994129,17616.901420,-2516.700203,-69101.813920
153.996693,3404.947333,-444.123565,-76762.768900
153.999256,14952.160028,-8290.306550,-72012.976812
154.001819,19541.436869,-7105.977043,-66803.527426
154.004383,3552.988522,-740.205942,-72166.195912
154.006946,9770.718434,5773.606348,-72932.291410
154.009510,3108.864956,-16136.489536,-74004.825107
154.012073,7550.100608,-1480.411884,-72166.195912
154.014637,20429.683999,1036.288319,-67569.622924
154.017200,8438.347739,-2368.659014,-71093.662214
154.019764,6069.688724,3552.988522,-73391.948708
154.022327,12583.501014,2368.659014,-71553.319513
154.024891,15840.407159,-5181.441594,-69867.909418
154.027454,14656.077652,-7254.018232,-70940.443115
154.030018,4441.235652,7550.100608,-73391.948708
154.032581,8142.265362,-2220.617826,-68948.594820
154.035145,14063.912898,-1332.370696,-69255.033019
154.037708,17468.860231,-6217.729913,-70327.566716
154.040272,18801.230927,5033.400406,-71553.319513
154.042835,-592.164754,35974.008781,-74770.920605
154.045399,16284.530724,-2812.782580,-63126.269035
154.047962,-888.247130,-23834.631332,-73391.948708
154.050526,11251.130318,12879.583391,-72472.634111
154.053089,35677.926404,5773.606348,-64505.240932
154.055653,-1480.411884,14063.912898,-75537.016103
154.058216,-3256.906145,17468.860231,-73698.386908
154.060780,14804.118840,-592.164754,-68029.280222
154.063343,17172.777854,2812.782580,-68642.156621
154.065907,10955.047942,5329.482782,-71706.538613
154.068470,5773.606348,11843.295072,-74158.044206
154.071034,16580.613101,10955.047942,-69408.252119
154.073597,15692.365970,-2664.741391,-67722.842023
154.076161,-740.205942,-12731.542202,-73851.606007
154.078724,15248.242405,2812.782580,-71093.662214
154.081288,13619.789333,13175.665768,-70634.004916
154.083851,8586.388927,1036.288319,-71706.538613
154.086415,10214.842000,-444.123565,-71859.757712
154.088978,9622.677246,-4737.318029,-71093.662214
154.091542,9178.553681,33457.308578,-71553.319513
154.094109,18209.066173,12287.418637,-68335.718422
154.096677,8142.265362,-2516.700203,-72012.976812
154.099245,9178.553681,5477.523971,-70327.566716
154.101813,10807.006753,9178.553681,-70021.128517
154.104381,9770.718434,16136.489536,-70021.128517
154.106949,30052.361245,740.205942,-68182.499322
154.109517,-3701.029710,8142.265362,-76149.892501
154.112085,9030.512492,-296.082377,-67876.061123
154.114653,24574.837274,5033.400406,-64505.240932
154.117220,2072.576638,-7550.100608,-73698.386908
154.119788,19837.519246,-9178.553681,-68029.280222
154.122356,7402.059420,15100.201217,-72472.634111
154.124924,3552.988522,15544.324782,-72932.291410
154.127492,16284.530724,-5625.565159,-69101.813920
154.130060,12583.501014,-7105.977043,-68642.156621
154.132628,12435.459826,-2368.659014,-70174.347617
154.135196,8438.347739,-7254.018232,-73545.167808
154.137764,8290.306550,6069.688724,-72472.634111
154.140331,13915.871710,7402.059420,-70480.785816
154.142899,14508.036463,-6513.812290,-68335.718422
154.145467,-5329.482782,-1924.535449,-75383.797003
154.148035,15840.407159,10658.965565,-69867.909418
154.150603,20429.683999,5181.441594,-69714.690318
154.153171,15396.283594,-16580.613101,-70174.347617
154.155739,2220.617826,-3404.947333,-74464.482406
154.158307,9030.512492,1924.535449,-71093.662214
154.160875,15840.407159,-148.041188,-67263.184724
154.163442,9178.553681,14063.912898,-70634.004916
154.166010,10362.883188,13323.706956,-70174.347617
154.168578,3849.070898,-16876.695478,-73545.167808
154.171146,6661.853478,-148.041188,-71246.881314
154.173714,23094.425390,-5329.482782,-66190.651027
154.176282,6069.688724,-10066.800811,-74464.482406
154.178850,13767.830521,-3849.070898,-72472.634111
154.181418,14063.912898,8882.471304,-69867.909418
154.183985,2960.823768,296.082377,-70480.785816
154.186553,5773.606348,-3552.988522,-69101.813920
154.189121,14656.077652,5329.482782,-70327.566716
154.191689,7550.100608,2072.576638,-75537.016103
154.194257,16580.613101,42191.738694,-68335.718422
154.196827,1776.494261,24130.713709,-67722.842023
154.199397,-444.123565,-17024.736666,-73545.167808
154.201967,23242.466579,-2960.823768,-68795.375720
154.204537,15100.201217,7846.182985,-73238.729609
154.207106,-5033.400406,11399.171507,-76915.987999
154.209676,28719.990550,2368.659014,-61134.420740
154.212246,-4885.359217,13323.706956,-75077.358804
154.214816,8882.471304,16728.654289,-71093.662214
154.217386,21910.095883,5181.441594,-67109.965625
154.219956,9474.636058,10658.965565,-72779.072310
154.222526,13915.871710,-3849.070898,-70634.004916
154.225096,5773.606348,-740.205942,-72166.195912
154.227666,12287.418637,-9178.553681,-70021.128517
154.230236,8142.265362,22946.384202,-71859.757712
154.232805,13619.789333,18801.230927,-70634.004916
154.235375,12139.377449,6217.729913,-70327.566716
154.237945,5773.606348,18949.272115,-71400.100414
154.240515,14508.036463,17616.901420,-68795.375720
154.243085,7402.059420,-888.247130,-72012.976812
154.245655,10510.924376,-4293.194464,-72319.415011
154.248225,9918.759623,8142.265362,-71706.538613
154.250795,13619.789333,11991.336260,-68335.718422
154.253365,7994.224174,15396.283594,-70634.004916
154.255935,13471.748144,-14656.077652,-72166.195912
154.258504,19245.354492,4589.276840,-69101.813920
154.261074,2664.741391,21169.889941,-71553.319513
154.263644,4589.276840,13915.871710,-72012.976812
154.266214,8882.471304,10362.883188,-70174.347617
154.268784,15248.242405,-2072.576638,-68795.375720
154.271354,11103.089130,-9326.594869,-72472.634111
154.273924,13175.665768,6957.935855,-69867.909418
154.276494,9622.677246,10658.965565,-72625.853210
154.279064,4441.235652,5921.647536,-72166.195912
154.281634,21021.848753,-9178.553681,-66803.527426
154.284203,1036.288319,-7994.224174,-75383.797003
154.286773,13915.871710,2072.576638,-69867.909418
154.289343,12583.501014,2368.659014,-71093.662214
154.291913,12583.501014,5033.400406,-71706.538613
154.294483,3108.864956,-5329.482782,-70940.443115
154.297053,12435.459826,444.123565,-69561.471218
154.299625,20577.725188,1184.329507,-68642.156621
154.302197,10658.965565,-13767.830521,-72932.291410
154.304769,10807.006753,4293.194464,-72166.195912
154.307341,10362.883188,15396.283594,-70940.443115
154.309913,13323.706956,-2220.617826,-68182.499322
154.312484,4589.276840,16432.571912,-71553.319513
154.315056,17024.736666,11991.336260,-69408.252119
154.317628,3404.947333,-23390.507767,-73851.606007
154.320200,9030.512492,2812.782580,-71706.538613
154.322772,18801.230927,8882.471304,-67263.184724
154.325344,6069.688724,-3256.906145,-74158.044206
154.327916,16580.613101,-3849.070898,-71706.538613
154.330488,19541.436869,12435.459826,-68182.499322
154.333060,-7105.977043,-1332.370696,-74158.044206
154.335632,8290.306550,-9030.512492,-69561.471218
154.338204,22798.343014,-7105.977043,-67569.622924
154.340776,6513.812290,592.164754,-76762.768900
154.343347,15100.201217,34641.638086,-68182.499322
154.345919,15396.283594,20429.683999,-64352.021832
154.348491,-14063.912898,-20133.601622,-79520.712692
154.351063,7846.182985,-16136.489536,-74158.044206
154.353635,27239.578666,10807.006753,-67876.061123
154.356207,5921.647536,17468.860231,-70940.443115
154.358779,740.205942,4293.194464,-72166.195912
154.361351,11103.089130,740.205942,-69714.690318
154.363923,15988.448347,14359.995275,-68488.937521
154.366495,11251.130318,12435.459826,-70940.443115
154.369067,5181.441594,8142.265362,-73698.386908
154.371638,23982.672521,5033.400406,-67109.965625
154.374210,3552.988522,-12139.377449,-72625.853210
154.376782,5921.647536,-15396.283594,-72472.634111
154.379354,12731.542202,7994.224174,-70634.004916
154.381926,14211.954086,4885.359217,-72012.976812
154.384498,13175.665768,2664.741391,-69561.471218
154.387070,5181.441594,5181.441594,-71246.881314
154.389642,12731.542202,-7105.977043,-70634.004916
154.392214,7402.059420,888.247130,-72625.853210
154.394786,19393.395680,20133.601622,-68029.280222
154.397358,3701.029710,18061.024985,-73085.510509
154.399930,8586.388927,9918.759623,-72012.976812
154.402502,13471.748144,6365.771101,-71246.881314
154.405074,13323.706956,6661.853478,-71246.881314
154.407646,7698.141797,22502.260637,-69408.252119
154.410218,1184.329507,15396.283594,-73085.510509
154.412791,13175.665768,16284.530724,-70174.347617
154.415363,15840.407159,-9178.553681,-68029.280222
154.417935,9770.718434,-23982.672521,-71400.100414
154.420507,6069.688724,14211.954086,-74464.482406
154.423079,15840.407159,23982.672521,-68029.280222
154.425651,7846.182985,-10066.800811,-71246.881314
154.428224,10510.924376,-8438.347739,-70940.443115
154.430796,9326.594869,-3108.864956,-72625.853210
154.433368,12139.377449,-1332.370696,-70327.566716
154.435940,12287.418637,-2664.741391,-70021.128517
154.438512,11843.295072,3701.029710,-72012.976812
154.441085,5773.606348,-7846.182985,-70634.004916
154.443657,14508.036463,-2368.659014,-68948.594820
154.446229,8290.306550,6069.688724,-72625.853210
154.448801,13471.748144,21021.848753,-73238.729609
154.451373,16876.695478,12287.418637,-70021.128517
154.453946,6217.729913,148.041188,-72779.072310
154.456518,7105.977043,-35085.761651,-70787.224015
154.459090,11103.089130,-13915.871710,-71246.881314
154.461662,9770.718434,22502.260637,-71400.100414
154.464234,10658.965565,13915.871710,-70787.224015
154.466807,13471.748144,-1924.535449,-69408.252119
154.469379,9178.553681,-2812.782580,-73545.167808
154.471951,11251.130318,-7402.059420,-71706.538613
154.474523,20133.601622,-9474.636058,-69561.471218
154.477095,12879.583391,13471.748144,-70634.004916
154.479668,-1036.288319,888.247130,-72166.195912
154.482240,9326.594869,-9770.718434,-71400.100414
154.484812,18209.066173,-2812.782580,-69561.471218
154.487384,22946.384202,-8290.306550,-69867.909418
154.489956,-10658.965565,17468.860231,-77375.645298
154.492529,15248.242405,14359.995275,-64352.021832
154.495101,18357.107362,5921.647536,-69867.909418
154.497673,4589.276840,6809.894666,-77069.207099
154.500245,25315.043216,-11399.171507,-65730.993728
154.502817,8734.430116,13915.871710,-68642.156621
154.505390,-1924.535449,25315.043216,-74158.044206
154.507963,23242.466579,4589.276840,-68335.718422
154.510535,12879.583391,4885.359217,-69408.252119
154.513108,4737.318029,6513.812290,-73391.948708
154.515681,17468.860231,1036.288319,-69714.690318
154.518253,10510.924376,4885.359217,-72625.853210
154.520826,6957.935855,37454.420665,-69714.690318
154.523398,15396.283594,15396.283594,-68795.375720
154.525971,11251.130318,4145.153275,-71706.538613
154.528544,7402.059420,-3997.112087,-72625.853210
154.531116,9770.718434,-13915.871710,-71246.881314
154.533689,9178.553681,20725.766376,-70021.128517
154.536262,18505.148550,28127.825796,-68335.718422
154.538834,8142.265362,16580.613101,-73085.510509
154.541407,5625.565159,18357.107362,-72166.195912
154.543979,18505.148550,8438.347739,-67876.061123
154.546552,1036.288319,3404.947333,-76149.892501
154.549125,24278.754898,2664.741391,-67416.403824
154.551697,6513.812290,9030.512492,-71706.538613
154.554270,-8142.265362,12139.377449,-76456.330700
154.556843,33309.267390,12879.583391,-62206.954438
154.559415,148.041188,12287.418637,-74311.263306
154.561988,15100.201217,-9918.759623,-73545.167808
154.564560,13915.871710,12287.418637,-69408.252119
154.567133,7254.018232,9622.677246,-72166.195912
154.569706,9178.553681,-5033.400406,-71706.538613
154.572278,11103.089130,-7105.977043,-70327.566716
154.574851,14359.995275,-3108.864956,-70480.785816
154.577424,14804.118840,148.041188,-69714.690318
154.579996,7994.224174,1036.288319,-72472.634111
154.582569,4885.359217,7105.977043,-73851.606007
154.585141,15840.407159,-5773.606348,-67416.403824
154.587715,12139.377449,-13175.665768,-70021.128517
154.590288,1776.494261,-9918.759623,-75077.358804
154.592862,28423.908173,-296.082377,-67569.622924
154.595435,888.247130,16728.654289,-75537.016103
154.598009,12435.459826,7846.182985,-70327.566716
154.600582,19393.395680,-6809.894666,-68029.280222
154.603156,-5329.482782,-5625.565159,-77375.645298
154.605729,20133.601622,-7846.182985,-66190.651027
154.608302,6513.812290,-5625.565159,-71859.757712
154.610876,3701.029710,3552.988522,-74924.139704
154.613449,20873.807564,-2516.700203,-71400.100414
154.616023,21169.889941,-7402.059420,-68948.594820
154.618596,8142.265362,8882.471304,-72779.072310
154.621170,4589.276840,3108.864956,-70327.566716
154.623743,9622.677246,-7254.018232,-70327.566716
154.626317,12287.418637,1184.329507,-72012.976812
154.628890,14804.118840,0.000000,-71706.538613
154.631464,9770.718434,22946.384202,-71859.757712
154.634037,7550.100608,1184.329507,-66956.746525
154.636610,1628.453072,-10658.965565,-72779.072310
154.639184,11695.253884,7105.977043,-74924.139704
154.641757,22058.137072,7698.141797,-70174.347617
154.644331,3404.947333,20577.725188,-71859.757712
154.646904,12879.583391,7254.018232,-68335.718422
154.649478,3108.864956,11103.089130,-72472.634111
154.652051,11695.253884,23538.548956,-70940.443115
154.654625,18653.189738,3701.029710,-68029.280222
154.657198,3997.112087,8586.388927,-74004.825107
154.659771,16136.489536,20577.725188,-70480.785816
154.662345,4737.318029,22798.343014,-70787.224015
154.664918,12583.501014,-1332.370696,-67722.842023
154.667492,13323.706956,-296.082377,-68642.156621
154.670065,10955.047942,11843.295072,-70940.443115
154.672639,11843.295072,-11103.089130,-70021.128517
154.675212,6661.853478,2812.782580,-70940.443115
154.677786,11843.295072,26647.413912,-70940.443115
154.680359,13915.871710,8142.265362,-71246.881314
154.682933,6069.688724,3552.988522,-72166.195912
154.685506,12731.542202,12731.542202,-69101.813920
154.688079,888.247130,-1332.370696,-75383.797003
154.690652,22798.343014,8882.471304,-69714.690318
154.693225,11547.212695,28571.949361,-67876.061123
154.695798,2664.741391,23094.425390,-70634.004916
154.698371,13027.624579,-5181.441594,-71246.881314
154.700944,9918.759623,-14804.118840,-71093.662214
154.703517,21614.013506,-13619.789333,-66497.089226
154.706089,-1924.535449,14063.912898,-74158.044206
154.708662,14211.954086,13471.748144,-70634.004916
154.711235,13027.624579,592.164754,-69714.690318
154.713808,6957.935855,-8438.347739,-70634.004916
154.716381,11547.212695,-5181.441594,-72625.853210
154.718954,14656.077652,-4441.235652,-69867.909418
154.721527,14063.912898,-5329.482782,-69714.690318
154.724099,5181.441594,6217.729913,-72166.195912
154.726672,10214.842000,-1332.370696,-70787.224015
154.729245,5773.606348,-1184.329507,-71706.538613
154.731818,17172.777854,6513.812290,-68948.594820
154.734391,14063.912898,-26795.455100,-71706.538613
154.736964,8438.347739,-6809.894666,-73085.510509
154.739537,12879.583391,22058.137072,-72472.634111
154.742109,6217.729913,8142.265362,-71859.757712
154.744682,1924.535449,19985.560434,-74617.701505
154.747255,19541.436869,5033.400406,-66497.089226
154.749828,2220.617826,-12139.377449,-73085.510509
154.752401,14952.160028,-7846.182985,-70480.785816
154.754974,14063.912898,-1628.453072,-71859.757712
154.757547,7402.059420,7254.018232,-73085.510509
154.760120,15100.201217,-3256.906145,-68642.156621
154.762692,1628.453072,4589.276840,-71400.100414
154.765265,15544.324782,-4145.153275,-69255.033019
154.767838,8438.347739,-12879.583391,-73085.510509
154.770411,13323.706956,-6069.688724,-71706.538613
154.772984,-1924.535449,12583.501014,-72012.976812
154.775557,13619.789333,6513.812290,-64811.679131
154.778130,16432.571912,2072.576638,-70327.566716
154.780702,6809.894666,12879.583391,-76303.111601
154.783275,13915.871710,7846.182985,-70787.224015
154.785848,10214.842000,22502.260637,-68029.280222
154.788421,9622.677246,10362.883188,-69714.690318
154.790994,3997.112087,-2516.700203,-72625.853210
154.793566,15248.242405,6809.894666,-70021.128517
154.796138,13915.871710,3108.864956,-70787.224015
154.798711,12583.501014,22354.219448,-70327.566716
154.801283,9326.594869,27683.702231,-71246.881314
154.803855,3256.906145,-592.164754,-72932.291410
154.806428,12731.542202,-8734.430116,-69561.471218
154.809000,14508.036463,10214.842000,-71400.100414
154.811572,12435.459826,-2960.823768,-72625.853210
154.814145,-296.082377,16580.613101,-72779.072310
154.816717,18505.148550,30052.361245,-67876.061123
154.819289,12731.542202,-6365.771101,-71706.538613
154.821861,7105.977043,-8142.265362,-72166.195912
154.824434,14359.995275,7402.059420,-67876.061123
154.827006,11843.295072,148.041188,-70327.566716
154.829578,16580.613101,-6957.935855,-70480.785816
154.832151,3404.947333,24870.919651,-70787.224015
154.834723,3552.988522,10807.006753,-71706.538613
154.837295,12139.377449,1184.329507,-71400.100414
154.839868,11695.253884,-4885.359217,-70634.004916
154.842440,19097.313304,-4589.276840,-65577.774629
154.845012,3108.864956,4145.153275,-73391.948708
154.847585,7846.182985,6957.935855,-72625.853210
154.850157,9030.512492,3552.988522,-71400.100414
154.852729,13323.706956,-4737.318029,-68795.375720
154.855301,2664.741391,1332.370696,-74924.139704
154.857874,24574.837274,-444.123565,-67109.965625
154.860446,6365.771101,-4441.235652,-73391.948708
154.863018,1480.411884,740.205942,-73238.729609
154.865591,15988.448347,4737.318029,-67722.842023
154.868163,6217.729913,-2220.617826,-72166.195912
154.870735,12139.377449,17468.860231,-72932.291410
154.873308,11695.253884,6365.771101,-72472.634111
154.875880,19393.395680,3404.947333,-67876.061123
154.878452,5033.400406,-4589.276840,-73391.948708
154.881025,11547.212695,-17468.860231,-70634.004916
154.883597,13767.830521,-7994.224174,-68488.937521
154.886169,1776.494261,10658.965565,-72779.072310
154.888741,12435.459826,-2368.659014,-70940.443115
154.891314,11103.089130,7994.224174,-71093.662214
154.893886,15248.242405,296.082377,-71093.662214
154.896412,15248.242405,4589.276840,-70174.347617
154.898938,444.123565,11547.212695,-72625.853210
154.901464,8586.388927,-5181.441594,-71706.538613
154.903990,14804.118840,-13619.789333,-70327.566716
154.906517,19097.313304,-5477.523971,-70787.224015
154.909043,-296.082377,33457.308578,-73851.606007
154.911569,9474.636058,24278.754898,-65884.212828
154.914095,13175.665768,-10807.006753,-70327.566716
154.916621,10807.006753,5181.441594,-74158.044206
154.919147,23390.507767,13915.871710,-68335.718422
154.921673,2368.659014,18653.189738,-72012.976812
154.924199,6365.771101,740.205942,-71246.881314
154.926725,6513.812290,9622.677246,-70787.224015
154.929252,6365.771101,10362.883188,-73238.729609
154.931778,23390.507767,-2960.823768,-68029.280222
154.934304,3997.112087,21614.013506,-74158.044206
154.936830,19985.560434,15248.242405,-68335.718422
154.939356,2368.659014,-11399.171507,-71246.881314
154.941882,4441.235652,-3108.864956,-72319.415011
154.944408,21910.095883,13027.624579,-69101.813920
154.946934,11251.130318,17912.983796,-71859.757712
154.949461,4737.318029,19985.560434,-71246.881314
154.951987,10955.047942,11991.336260,-69867.909418
154.954513,20873.807564,8586.388927,-68488.937521
154.957039,1924.535449,-7105.977043,-74158.044206
154.959565,13471.748144,6069.688724,-69101.813920
154.962091,10362.883188,7254.018232,-70480.785816
154.964617,19245.354492,-12435.459826,-68488.937521
154.967143,1332.370696,11843.295072,-72166.195912
154.969669,7994.224174,13471.748144,-71706.538613
154.972196,14952.160028,16580.613101,-69867.909418
154.974722,13767.830521,-10955.047942,-68795.375720
154.977248,11991.336260,-14063.912898,-70480.785816
154.979774,1480.411884,18949.272115,-72932.291410
154.982300,25167.002028,-10214.842000,-65424.555529
154.984826,5921.647536,0.000000,-72625.853210
154.987352,1628.453072,-5477.523971,-74004.825107
154.989878,17912.983796,888.247130,-70480.785816
154.992404,16432.571912,9770.718434,-68795.375720
154.994931,11547.212695,-6957.935855,-71706.538613
154.997466,-2960.823768,-7550.100608,-75077.358804
155.000001,16876.695478,1184.329507,-67722.842023
155.002537,16136.489536,-296.082377,-67569.622924
155.005072,444.123565,-30052.361245,-72779.072310
155.007608,8438.347739,-9918.759623,-74924.139704
155.010143,13767.830521,1628.453072,-71093.662214
155.012679,4589.276840,15692.365970,-71706.538613
155.015214,16728.654289,4885.359217,-67876.061123
155.017750,11991.336260,-19541.436869,-69714.690318
155.020285,1480.411884,-3552.988522,-73545.167808
155.022820,12435.459826,2072.576638,-68948.594820
155.025356,21614.013506,-3404.947333,-68642.156621
155.027891,6069.688724,3552.988522,-74924.139704
155.030427,2368.659014,1036.288319,-71706.538613
155.032962,14508.036463,-13471.748144,-68335.718422
155.035498,14211.954086,0.000000,-70787.224015
155.038033,12139.377449,-5329.482782,-71400.100414
155.040569,12435.459826,27387.619854,-69255.033019
155.043104,1036.288319,5625.565159,-69408.252119
155.045639,10955.047942,-11251.130318,-68335.718422
155.048175,13027.624579,10955.047942,-72472.634111
155.050710,15100.201217,19541.436869,-72319.415011
155.053246,1332.370696,9474.636058,-74311.263306
155.055781,23538.548956,10955.047942,-64045.583633
155.058317,21317.931130,9622.677246,-64811.679131
155.060852,-3997.112087,1628.453072,-75537.016103
155.063388,16876.695478,6069.688724,-69714.690318
155.065923,16432.571912,12731.542202,-69255.033019
155.068459,12139.377449,8882.471304,-70480.785816
155.070994,5773.606348,-9770.718434,-71859.757712
155.073529,9474.636058,24130.713709,-70021.128517
155.076065,10807.006753,20577.725188,-69714.690318
155.078600,16876.695478,3108.864956,-68795.375720
155.081136,2960.823768,14804.118840,-72932.291410
155.083671,148.041188,13619.789333,-75077.358804
155.086207,22354.219448,11103.089130,-66803.527426
155.088742,9918.759623,20133.601622,-71093.662214
155.091278,9918.759623,10658.965565,-70787.224015
155.093813,13767.830521,12139.377449,-70634.004916
155.096348,9474.636058,-5625.565159,-70480.785816
155.098892,14508.036463,-13915.871710,-67416.403824
155.101435,1776.494261,15692.365970,-73545.167808
155.103978,7846.182985,26647.413912,-72625.853210
155.106521,22206.178260,-14656.077652,-67416.403824
155.109064,6513.812290,-2072.576638,-72166.195912
155.111607,11991.336260,16580.613101,-69101.813920
155.114150,11103.089130,-3849.070898,-69408.252119
155.116693,4145.153275,6217.729913,-72779.072310
155.119237,26647.413912,-3552.988522,-65424.555529
155.121780,-3849.070898,148.041188,-77069.207099
155.124323,15100.201217,-3256.906145,-69561.471218
155.126866,21169.889941,-8290.306550,-68029.280222
155.129409,1332.370696,-4737.318029,-72472.634111
155.131952,10066.800811,1924.535449,-70021.128517
155.134495,3404.947333,20577.725188,-72012.976812
155.137038,13323.706956,18061.024985,-71093.662214
155.139582,27239.578666,4885.359217,-66343.870127
155.142125,-6809.894666,-11695.253884,-77528.864398
155.144668,18949.272115,16728.654289,-68182.499322
155.147211,15840.407159,18653.189738,-68335.718422
155.149754,-2664.741391,-18357.107362,-75230.577904
155.152297,13323.706956,-15840.407159,-69867.909418
155.154840,15544.324782,0.000000,-70174.347617
155.157383,6365.771101,-3552.988522,-74158.044206
155.159927,15396.283594,7846.182985,-68642.156621
155.162470,18209.066173,11695.253884,-66803.527426
155.165013,11251.130318,-2664.741391,-70480.785816
155.167556,10658.965565,-22946.384202,-72779.072310
155.170099,15248.242405,-9178.553681,-69867.909418
155.172642,3404.947333,27979.784608,-70327.566716
155.175185,11399.171507,22058.137072,-66803.527426
155.177728,8142.265362,-3256.906145,-73545.167808
155.180272,17616.901420,2072.576638,-69867.909418
155.182815,19837.519246,3997.112087,-68642.156621
155.185358,740.205942,7550.100608,-72012.976812
155.187901,-1036.288319,5033.400406,-73085.510509
155.190444,16876.695478,10658.965565,-67722.842023
155.192987,13323.706956,27979.784608,-70021.128517
155.195530,6217.729913,-7402.059420,-74770.920605
155.198073,16136.489536,-4293.194464,-68948.594820
155.200623,14656.077652,-20725.766376,-69561.471218
155.203172,3108.864956,13175.665768,-72625.853210
155.205721,11843.295072,11991.336260,-69867.909418
155.208271,16728.654289,-7254.018232,-68182.499322
155.210820,-2220.617826,8290.306550,-75843.454302
155.213370,25167.002028,444.123565,-66497.089226
155.215919,9178.553681,592.164754,-71093.662214
155.218469,11103.089130,21614.013506,-70327.566716
155.221018,15396.283594,12731.542202,-70327.566716
155.223568,2664.741391,15248.242405,-74004.825107
155.226117,25167.002028,-2664.741391,-64505.240932
155.228667,-3849.070898,-8882.471304,-73851.606007
155.231216,6069.688724,16284.530724,-72472.634111
155.233765,23982.672521,19541.436869,-62973.049936
155.236315,9474.636058,-17172.777854,-72319.415011
155.238864,-3552.988522,-9474.636058,-76762.768900
155.241414,15100.201217,4441.235652,-67263.184724
155.243963,20429.683999,1036.288319,-66343.870127
155.246513,1480.411884,4589.276840,-74770.920605
155.249062,17172.777854,-7698.141797,-69561.471218
155.251612,1036.288319,5921.647536,-75843.454302
155.254161,28275.866984,-4885.359217,-64964.898230
155.256711,3404.947333,-1332.370696,-73698.386908
155.259260,-148.041188,-1184.329507,-74004.825107
155.261810,21465.972318,-15988.448347,-64964.898230
155.264359,740.205942,4885.359217,-74158.044206
155.266908,10362.883188,5625.565159,-74311.263306
155.269458,20429.683999,9918.759623,-69255.033019
155.272007,7698.141797,-26351.331535,-70634.004916
155.274557,5329.482782,16728.654289,-73545.167808
155.277106,15544.324782,17320.819043,-68642.156621
155.279656,9474.636058,-7105.977043,-70174.347617
155.282205,1628.453072,-2812.782580,-71553.319513
155.284755,25167.002028,-5921.647536,-66956.746525
155.287304,4441.235652,3108.864956,-74770.920605
155.289854,4737.318029,4885.359217,-71706.538613
155.292403,20429.683999,-10362.883188,-65577.774629
155.294952,11399.171507,-4589.276840,-72932.291410
155.297502,6217.729913,8290.306550,-73238.729609
155.300051,19393.395680,19837.519246,-66037.431928
155.302606,444.123565,-4145.153275,-70634.004916
155.305162,3997.112087,-12583.501014,-71553.319513
155.307717,25315.043216,16136.489536,-68948.594820
155.310272,6217.729913,23686.590144,-74924.139704
155.312827,6217.729913,-1480.411884,-72472.634111
155.315382,22798.343014,8290.306550,-64198.802732
155.317937,-3552.988522,18949.272115,-72779.072310
155.320492,3701.029710,1924.535449,-73545.167808
155.323048,15544.324782,15692.365970,-71093.662214
155.325603,11251.130318,16284.530724,-71093.662214
155.328158,17320.819043,-18653.189738,-68642.156621
155.330713,2220.617826,18505.148550,-74770.920605
155.333268,16876.695478,21614.013506,-67416.403824
155.335823,6069.688724,22502.260637,-70634.004916
155.338378,7846.182985,9178.553681,-71246.881314
155.340934,19837.519246,-7550.100608,-67876.061123
155.343489,888.247130,1776.494261,-74924.139704
155.346044,20873.807564,13767.830521,-64964.898230
155.348599,12139.377449,4145.153275,-71093.662214
155.351154,3701.029710,8438.347739,-75537.016103
155.353709,28275.866984,-11843.295072,-64352.021832
155.356264,-7105.977043,-8882.471304,-75537.016103
155.358820,10510.924376,33753.390955,-71553.319513
155.361375,25611.125593,28719.990550,-63892.364533
155.363930,2368.659014,-11103.089130,-72319.415011
155.366485,15692.365970,-22798.343014,-70940.443115
155.369040,5773.606348,-7994.224174,-73545.167808
155.371595,1184.329507,-2220.617826,-73391.948708
155.374150,17764.942608,11843.295072,-67416.403824
155.376706,13915.871710,-10510.924376,-69408.252119
155.379261,-740.205942,740.205942,-77682.083497
155.381816,28868.031738,-6661.853478,-64045.583633
155.384371,3701.029710,-2072.576638,-74004.825107
155.386926,1480.411884,1776.494261,-73391.948708
155.389481,25759.166782,-148.041188,-64352.021832
155.392036,-8290.306550,-16136.489536,-75690.235202
155.394591,17172.777854,-10807.006753,-71246.881314
155.397147,16432.571912,42339.779882,-71400.100414
155.399702,9030.512492,23686.590144,-71093.662214
155.402257,14508.036463,10658.965565,-68948.594820
155.404816,2368.659014,7254.018232,-73851.606007
155.407374,16876.695478,-9918.759623,-68488.937521
155.409933,4293.194464,-10362.883188,-71093.662214
155.412492,8734.430116,2368.659014,-72932.291410
155.415050,26499.372724,9622.677246,-66190.651027
155.417609,-3256.906145,4737.318029,-73851.606007
155.420168,7402.059420,-9474.636058,-71246.881314
155.422726,23094.425390,-6809.894666,-68488.937521
155.425285,22946.384202,1628.453072,-67569.622924
155.427844,4293.194464,23538.548956,-70940.443115
155.430402,-4885.359217,14508.036463,-71706.538613
155.432961,15100.201217,-14359.995275,-69101.813920
155.435520,24130.713709,7698.141797,-69255.033019
155.438078,4885.359217,15692.365970,-74464.482406
155.440637,5773.606348,31828.855506,-71859.757712
155.443196,9030.512492,5625.565159,-68335.718422
155.445754,14359.995275,-1036.288319,-67569.622924
155.448313,13175.665768,4885.359217,-68795.375720
155.450872,5921.647536,7105.977043,-74004.825107
155.453430,12583.501014,16728.654289,-72166.195912
155.455989,22650.301825,36122.049970,-67263.184724
155.458548,-3701.029710,17320.819043,-75383.797003
155.461106,13915.871710,-5477.523971,-68335.718422
155.463665,11547.212695,4737.318029,-72012.976812
155.466224,11103.089130,18653.189738,-70787.224015
155.468782,6957.935855,16580.613101,-71859.757712
155.471341,10510.924376,-592.164754,-72319.415011
155.473900,13767.830521,13027.624579,-70021.128517
155.476458,18209.066173,16432.571912,-70021.128517
155.479017,0.000000,3552.988522,-74924.139704
155.481576,13175.665768,7105.977043,-67109.965625
155.484134,5329.482782,27535.661042,-71859.757712
155.486693,16432.571912,6513.812290,-68948.594820
155.489252,3552.988522,-9178.553681,-71553.319513
155.491810,20725.766376,-19837.519246,-68182.499322
155.494369,5625.565159,5773.606348,-73698.386908
155.496928,5625.565159,19097.313304,-71400.100414
155.499486,18505.148550,-1184.329507,-67722.842023
155.502045,3552.988522,5033.400406,-72166.195912
155.504604,14063.912898,-1332.370696,-71093.662214
155.507166,15544.324782,-6217.729913,-70634.004916
155.509728,0.000000,-888.247130,-74311.263306
155.512290,22798.343014,-9178.553681,-66497.089226
155.514852,6069.688724,-1776.494261,-71400.100414
155.517414,-2368.659014,-1628.453072,-74464.482406
155.519976,27683.702231,-25907.207970,-65577.774629
155.522538,-1332.370696,-7550.100608,-76915.987999
155.525100,22946.384202,-9030.512492,-68182.499322
155.527662,10955.047942,1332.370696,-70940.443115
155.530224,5625.565159,7698.141797,-70327.566716
155.532787,17320.819043,-1924.535449,-67263.184724
155.535349,-1184.329507,-4293.194464,-76303.111601
155.537911,16876.695478,-5181.441594,-68948.594820
155.540473,20281.642811,6069.688724,-67263.184724
155.543035,-6513.812290,4441.235652,-74770.920605
155.545597,12583.501014,-5181.441594,-70174.347617
155.548159,20133.601622,-6217.729913,-68948.594820
155.550721,4145.153275,7105.977043,-75843.454302
155.553283,12731.542202,15692.365970,-69408.252119
155.555845,9474.636058,18653.189738,-67263.184724
155.558407,7994.224174,-7994.224174,-71400.100414
155.560970,15248.242405,1776.494261,-70480.785816
155.563532,24130.713709,6661.853478,-68795.375720
155.566094,-2516.700203,12139.377449,-74924.139704
155.568656,9326.594869,17912.983796,-67876.061123
155.571218,17616.901420,19689.478057,-67416.403824
155.573780,6809.894666,2368.659014,-73085.510509
155.576342,12731.542202,3849.070898,-71553.319513
155.578904,10658.965565,-2960.823768,-72472.634111
155.581466,18505.148550,-16136.489536,-68642.156621
155.584028,2368.659014,-6957.935855,-73238.729609
155.586590,11251.130318,16876.695478,-70940.443115
155.589153,13619.789333,-3404.947333,-70634.004916
155.591715,6365.771101,15544.324782,-72012.976812
155.594277,22946.384202,24870.919651,-66343.870127
155.596839,-444.123565,5181.441594,-74464.482406
155.599401,14804.118840,-4589.276840,-70480.785816
155.601963,24278.754898,16136.489536,-66190.651027
155.604525,-4441.235652,4589.276840,-74617.701505
155.607087,21021.848753,-3849.070898,-66037.431928
155.609651,4589.276840,16136.489536,-73238.729609
155.612215,7402.059420,21614.013506,-71093.662214
155.614778,21169.889941,-23390.507767,-68642.156621
155.617342,3552.988522,-11399.171507,-74770.920605
155.619906,18505.148550,5773.606348,-69255.033019
155.622469,1480.411884,5477.523971,-72319.415011
155.625033,14063.912898,-1480.411884,-69714.690318
155.627597,11103.089130,-8290.306550,-71246.881314
155.630160,8290.306550,-5625.565159,-73391.948708
155.632724,19689.478057,-1924.535449,-68642.156621
155.635288,10510.924376,0.000000,-71706.538613
155.637852,1776.494261,9474.636058,-72319.415011
155.640415,18357.107362,-6957.935855,-66190.651027
155.642979,6069.688724,-28571.949361,-71246.881314
155.645543,9030.512492,-5181.441594,-73238.729609
155.648106,18653.189738,19097.313304,-71093.662214
155.650670,13175.665768,10214.842000,-68182.499322
155.653234,6513.812290,-4145.153275,-72625.853210
155.655797,10214.842000,-16432.571912,-69867.909418
155.658361,8882.471304,-6217.729913,-70787.224015
155.660925,15396.283594,5625.565159,-70021.128517
155.663489,14211.954086,5033.400406,-70327.566716
155.666052,1332.370696,11991.336260,-71553.319513
155.668616,7698.141797,-3552.988522,-72012.976812
155.671180,16136.489536,-1628.453072,-70021.128517
155.673743,8734.430116,2072.576638,-73391.948708
155.676307,19985.560434,10807.006753,-68029.280222
155.678871,-592.164754,1480.411884,-70174.347617
155.681435,6217.729913,1924.535449,-70480.785816
155.683998,15988.448347,2516.700203,-71246.881314
155.686562,18357.107362,13767.830521,-69101.813920
155.689126,444.123565,20429.683999,-73698.386908
155.691689,7994.224174,-1480.411884,-69867.909418
155.694253,19985.560434,9918.759623,-65118.117330
155.696817,-592.164754,14508.036463,-74158.044206
155.699380,12139.377449,3404.947333,-72472.634111
155.701944,16728.654289,28571.949361,-68795.375720
155.704508,22798.343014,-2664.741391,-65424.555529
155.707072,-1480.411884,4145.153275,-75077.358804
155.709635,10955.047942,13915.871710,-70021.128517
155.712200,11843.295072,12287.418637,-69408.252119
155.714766,10362.883188,16876.695478,-68795.375720
155.717331,14359.995275,7698.141797,-70634.004916
155.719896,9770.718434,3997.112087,-71706.538613
155.722461,592.164754,10362.883188,-74617.701505
155.725027,25463.084405,17616.901420,-66343.870127
155.727592,16284.530724,-6513.812290,-67263.184724
155.730157,3701.029710,-19245.354492,-72625.853210
155.732722,-2368.659014,23094.425390,-76609.549800
155.735288,22206.178260,35381.844028,-66190.651027
155.737853,20133.601622,-12583.501014,-66497.089226
155.740418,-2516.700203,5625.565159,-76149.892501
155.742983,10066.800811,-6513.812290,-71093.662214
155.745549,11251.130318,-2812.782580,-70787.224015
155.748114,13323.706956,4293.194464,-69255.033019
155.750679,6069.688724,-3256.906145,-73085.510509
155.753244,7994.224174,-6513.812290,-73085.510509
155.755810,20873.807564,148.041188,-67263.184724
155.758375,7846.182985,-6217.729913,-71859.757712
155.760940,4441.235652,-1332.370696,-72932.291410
155.763505,15544.324782,18357.107362,-67263.184724
155.766071,5625.565159,18061.024985,-70787.224015
155.768636,12139.377449,9030.512492,-73698.386908
155.771201,12139.377449,-14508.036463,-70940.443115
155.773766,6069.688724,20429.683999,-72779.072310
155.776332,18653.189738,22502.260637,-68642.156621
155.778897,6069.688724,-16876.695478,-70940.443115
155.781462,9030.512492,-10955.047942,-71706.538613
155.784027,12879.583391,-6809.894666,-70787.224015
155.786593,4885.359217,-1332.370696,-71706.538613
155.789158,18061.024985,13619.789333,-66803.527426
155.791723,7402.059420,0.000000,-71553.319513
155.794290,8734.430116,-3256.906145,-72319.415011
155.796857,20873.807564,-3701.029710,-68948.594820
155.799424,4737.318029,18505.148550,-70634.004916
155.801991,-888.247130,13767.830521,-70327.566716
155.804558,19541.436869,-5773.606348,-68488.937521
155.807125,15692.365970,12583.501014,-71553.319513
155.809691,10362.883188,8142.265362,-70787.224015
155.812258,11991.336260,4293.194464,-68182.499322
155.814825,-1480.411884,13619.789333,-73085.510509
155.817392,19985.560434,9178.553681,-68335.718422
155.819959,16728.654289,7698.141797,-67876.061123
155.822526,12139.377449,17172.777854,-71400.100414
155.825093,10658.965565,21317.931130,-71859.757712
155.827660,11991.336260,-1480.411884,-69561.471218
155.830227,9326.594869,6809.894666,-68335.718422
155.832794,7846.182985,13027.624579,-73085.510509
155.835361,9474.636058,18949.272115,-70174.347617
155.837928,13175.665768,8290.306550,-69714.690318
155.840495,9770.718434,2664.741391,-71400.100414
155.843061,8142.265362,-2516.700203,-71246.881314
155.845628,36862.255912,3256.906145,-62053.735338
155.848195,18505.148550,-6661.853478,-65884.212828
155.850762,-12583.501014,3256.906145,-77222.426198
155.853329,15248.242405,26203.290347,-70174.347617
155.855896,20281.642811,15840.407159,-65577.774629
155.858463,10510.924376,-13323.706956,-70327.566716
155.861030,4441.235652,-6217.729913,-74464.482406
155.863597,19837.519246,-2664.741391,-66956.746525
155.866164,3701.029710,1332.370696,-72012.976812
155.868731,7994.224174,1924.535449,-72166.195912
155.871298,17172.777854,-8438.347739,-68182.499322
155.873865,9030.512492,-8586.388927,-73851.606007
155.876431,13619.789333,-6513.812290,-70021.128517
155.878998,11547.212695,-10362.883188,-72166.195912
155.881565,3552.988522,8882.471304,-72625.853210
155.884132,21465.972318,-14063.912898,-65577.774629
155.886699,3552.988522,-15248.242405,-73698.386908
155.889266,4737.318029,6069.688724,-73545.167808
155.891833,22946.384202,-2368.659014,-69255.033019
155.894400,13323.706956,-6069.688724,-70021.128517
155.896929,5181.441594,-6217.729913,-73238.729609
155.899458,8438.347739,-1036.288319,-70634.004916
155.901987,7550.100608,-6217.729913,-72932.291410
155.904516,28275.866984,-1924.535449,-64658.460031
155.907045,-10066.800811,-4441.235652,-76762.768900
155.909574,9474.636058,3997.112087,-70634.004916
155.912103,24574.837274,7698.141797,-65271.336430
155.914632,5773.606348,-10955.047942,-74311.263306
155.917161,6365.771101,12731.542202,-74004.825107
155.919690,15248.242405,11547.212695,-66037.431928
155.922219,11843.295072,-2220.617826,-67263.184724
155.924748,3256.906145,11547.212695,-76762.768900
155.927277,8290.306550,18653.189738,-73238.729609
155.929806,18209.066173,6957.935855,-68029.280222
155.932335,16728.654289,-3404.947333,-66497.089226
155.934864,-10066.800811,7402.059420,-77069.207099
155.937393,17024.736666,12879.583391,-67722.842023
155.939922,22798.343014,1480.411884,-66497.089226
155.942451,3404.947333,-13619.789333,-74464.482406
155.944980,9474.636058,-4589.276840,-73698.386908
155.947509,15692.365970,1036.288319,-66343.870127
155.950038,10955.047942,17024.736666,-68182.499322
155.952567,18653.189738,-2072.576638,-68948.594820
155.955096,-1332.370696,14063.912898,-74464.482406
155.957625,10807.006753,33605.349767,-70327.566716
155.960154,29312.155303,4589.276840,-64658.460031
155.962683,1184.329507,-2516.700203,-77069.207099
155.965212,4885.359217,6513.812290,-74464.482406
155.967741,13323.706956,26203.290347,-67109.965625
155.970270,10658.965565,11399.171507,-69561.471218
155.972799,9326.594869,9770.718434,-73391.948708
155.975328,7550.100608,8734.430116,-71400.100414
155.977857,23242.466579,-11991.336260,-67416.403824
155.980386,10214.842000,13915.871710,-72012.976812
155.982915,3552.988522,7105.977043,-72012.976812
155.985444,11843.295072,-5033.400406,-69408.252119
155.987973,6365.771101,4441.235652,-72166.195912
155.990502,23982.672521,-4589.276840,-67109.965625
155.993031,1480.411884,-2664.741391,-75383.797003
155.995561,7550.100608,6069.688724,-72319.415011
155.998099,21317.931130,-11695.253884,-66803.527426
156.000637,-1776.494261,-2960.823768,-74770.920605
156.003175,5625.565159,-15100.201217,-70634.004916
156.005713,19837.519246,-8438.347739,-68029.280222
156.008251,888.247130,6809.894666,-76609.549800
156.010789,27091.537477,18209.066173,-65577.774629
156.013328,3849.070898,5477.523971,-73698.386908
156.015866,2516.700203,-11251.130318,-74004.825107
156.018404,24574.837274,-7550.100608,-64811.679131
156.020942,7698.141797,-4145.153275,-72625.853210
156.023480,-5033.400406,148.041188,-75843.454302
156.026018,24722.878463,7994.224174,-64505.240932
156.028556,19393.395680,3404.947333,-67722.842023
156.031095,5033.400406,-20725.766376,-73391.948708
156.033633,22354.219448,-13175.665768,-69408.252119
156.036171,-6365.771101,37750.503042,-75230.577904
156.038709,13619.789333,24722.878463,-65271.336430
156.041247,14508.036463,1776.494261,-70327.566716
156.043785,13027.624579,5625.565159,-72625.853210
156.046324,15692.365970,-10362.883188,-68182.499322
156.048862,4885.359217,9474.636058,-70480.785816
156.051400,3997.112087,21169.889941,-72012.976812
156.053938,16136.489536,3404.947333,-68642.156621
156.056476,5625.565159,13027.624579,-72166.195912
156.059014,18061.024985,20281.642811,-68642.156621
156.061552,14063.912898,6957.935855,-71246.881314
156.064091,6661.853478,8290.306550,-72166.195912
156.066629,13915.871710,14804.118840,-67416.403824
156.069167,7994.224174,3404.947333,-70787.224015
156.071705,5921.647536,-148.041188,-73545.167808
156.074243,15544.324782,17320.819043,-68029.280222
156.076781,16432.571912,16136.489536,-67416.403824
156.079320,5921.647536,-2220.617826,-69255.033019
156.081858,10214.842000,-17468.860231,-70327.566716
156.084396,3256.906145,-7105.977043,-71706.538613
156.086934,5477.523971,17320.819043,-71859.757712
156.089472,17468.860231,13027.624579,-68488.937521
156.092010,7846.182985,-22650.301825,-71859.757712
156.094548,13471.748144,-13323.706956,-70480.785816
156.097087,11251.130318,9474.636058,-70021.128517
156.099632,8142.265362,10955.047942,-71859.757712
156.102178,8586.388927,-888.247130,-71246.881314
156.104724,14952.160028,-9918.759623,-68488.937521
156.107269,15988.448347,-4885.359217,-70787.224015
156.109815,11547.212695,4293.194464,-70787.224015
156.112361,5181.441594,-7105.977043,-73545.167808
156.114907,14656.077652,-6661.853478,-69255.033019
156.117452,6957.935855,-25018.960840,-71706.538613
156.119998,10510.924376,-14952.160028,-71246.881314
156.122544,9030.512492,19837.519246,-72932.291410
156.125089,14656.077652,888.247130,-71093.662214
156.127635,8438.347739,2072.576638,-72779.072310
156.130181,13767.830521,-3849.070898,-70787.224015
156.132727,16580.613101,-9918.759623,-67876.061123
156.135272,1332.370696,4737.318029,-74004.825107
156.137818,12583.501014,2516.700203,-69561.471218
156.140364,12287.418637,6957.935855,-70174.347617
156.142909,2368.659014,4885.359217,-74770.920605
156.145455,24278.754898,-12287.418637,-66956.746525
156.148001,4885.359217,5921.647536,-74770.920605
156.150547,12435.459826,35974.008781,-70327.566716
156.153092,6513.812290,6365.771101,-66956.746525
156.155638,6217.729913,-15988.448347,-71246.881314
156.158184,12287.418637,13175.665768,-74158.044206
156.160729,5181.441594,11695.253884,-74617.701505
156.163275,5181.441594,15988.448347,-71859.757712
156.165821,26203.290347,10658.965565,-61134.420740
156.168367,2220.617826,2516.700203,-75077.358804
156.170912,-2960.823768,12583.501014,-76915.987999
156.173458,25907.207970,13471.748144,-66190.651027
156.176004,13767.830521,30644.525999,-70021.128517
156.178549,12583.501014,4441.235652,-71553.319513
156.181095,5477.523971,-8142.265362,-71553.319513
156.183641,3997.112087,27091.537477,-73851.606007
156.186187,15100.201217,10658.965565,-68029.280222
156.188732,11399.171507,30052.361245,-70480.785816
156.191278,5329.482782,18949.272115,-72625.853210
156.193824,12583.501014,-10066.800811,-71400.100414
156.196369,16432.571912,-5329.482782,-69561.471218
156.198915,8882.471304,12287.418637,-69101.813920
156.201466,-296.082377,11399.171507,-74311.263306
156.204018,17616.901420,13471.748144,-69255.033019
156.206570,16728.654289,-8290.306550,-68182.499322
156.209122,12731.542202,-16876.695478,-69561.471218
156.211674,8438.347739,7698.141797,-74158.044206
156.214226,-592.164754,17172.777854,-74311.263306
156.216778,14804.118840,0.000000,-67569.622924
156.219330,16136.489536,-3552.988522,-68488.937521
156.221882,10214.842000,-7994.224174,-72779.072310
156.224434,2368.659014,-4293.194464,-75843.454302
156.226986,21614.013506,740.205942,-67109.965625
156.229538,11103.089130,-148.041188,-70480.785816
156.232090,2220.617826,-1332.370696,-73698.386908
156.234642,11843.295072,-21762.054695,-69867.909418
156.237194,14952.160028,-7994.224174,-69255.033019
156.239746,8734.430116,2664.741391,-73085.510509
156.242298,19541.436869,-20873.807564,-69255.033019
156.244850,-296.082377,-5625.565159,-75077.358804
156.247402,16136.489536,-2072.576638,-70021.128517
156.249954,17616.901420,-4737.318029,-69408.252119
156.252506,1924.535449,4589.276840,-72779.072310
156.255058,14952.160028,3256.906145,-67722.842023
156.257610,5181.441594,-7994.224174,-72932.291410
156.260162,7846.182985,8586.388927,-72472.634111
156.262714,18949.272115,9326.594869,-72012.976812
156.265266,20577.725188,38046.585419,-65730.993728
156.267818,-8734.430116,11843.295072,-74004.825107
156.270370,10214.842000,-15248.242405,-70634.004916
156.272922,28868.031738,15396.283594,-67569.622924
156.275474,4737.318029,21465.972318,-73545.167808
156.278026,0.000000,12731.542202,-72779.072310
156.280578,15840.407159,5329.482782,-66650.308326
156.283130,19097.313304,10362.883188,-66803.527426
156.285682,-3256.906145,9622.677246,-74464.482406
156.288234,12879.583391,5921.647536,-71246.881314
156.290786,20725.766376,-11251.130318,-67722.842023
156.293338,13471.748144,13619.789333,-70327.566716
156.295890,1924.535449,23538.548956,-71246.881314
156.298441,17468.860231,3849.070898,-66650.308326
156.300993,7402.059420,18061.024985,-72012.976812
156.303550,11399.171507,6809.894666,-71859.757712
156.306106,1184.329507,-148.041188,-72932.291410
156.308662,27683.702231,19245.354492,-65730.993728
156.311218,14063.912898,740.205942,-69408.252119
156.313775,-6809.894666,-2812.782580,-76149.892501
156.316331,16432.571912,7994.224174,-73085.510509
156.318887,18061.024985,27387.619854,-67876.061123
156.321443,9622.677246,-23982.672521,-70021.128517
156.324000,10955.047942,-5181.441594,-72625.853210
156.326556,11547.212695,16876.695478,-69714.690318
156.329112,3256.906145,2072.576638,-72166.195912
156.331668,13915.871710,-2220.617826,-69101.813920
156.334225,12879.583391,-8142.265362,-69714.690318
156.336781,9178.553681,-5477.523971,-73545.167808
156.339337,12139.377449,6809.894666,-71553.319513
156.341893,8586.388927,-11843.295072,-71859.757712
156.344449,17616.901420,3997.112087,-66803.527426
156.347006,10510.924376,6217.729913,-69561.471218
156.349562,13619.789333,-3552.988522,-68642.156621
156.352118,4441.235652,-3701.029710,-74311.263306
156.354674,10658.965565,-6809.894666,-70480.785816
156.357231,14952.160028,-22946.384202,-70327.566716
156.359787,13323.706956,1628.453072,-71706.538613
156.362343,7994.224174,3108.864956,-71859.757712
156.364899,13027.624579,10658.965565,-68642.156621
156.367456,8438.347739,8142.265362,-71093.662214
156.370012,10214.842000,-4441.235652,-70787.224015
156.372568,4293.194464,4885.359217,-73698.386908
156.375124,15396.283594,-3404.947333,-70021.128517
156.377681,26203.290347,8586.388927,-65271.336430
156.380237,-9474.636058,12435.459826,-74004.825107
156.382793,6957.935855,-3849.070898,-70787.224015
156.385349,17616.901420,22354.219448,-70634.004916
156.387905,18653.189738,25315.043216,-69561.471218
156.390462,12879.583391,-3701.029710,-68335.718422
156.393018,-888.247130,4293.194464,-74464.482406
156.395574,-4737.318029,12435.459826,-76303.111601
156.398130,15840.407159,148.041188,-67876.061123
156.400687,26055.249158,6513.812290,-66190.651027
156.403243,1628.453072,35085.761651,-76762.768900
156.405803,11399.171507,1924.535449,-70940.443115
156.408363,9622.677246,-6069.688724,-70327.566716
156.410922,8882.471304,14359.995275,-71246.881314
156.413482,19985.560434,14804.118840,-66037.431928
156.416042,-592.164754,19541.436869,-75383.797003
156.418602,10807.006753,11399.171507,-70327.566716
156.421162,22650.301825,7846.182985,-67876.061123
156.423721,12879.583391,-3552.988522,-69101.813920
156.426281,2368.659014,-12435.459826,-72625.853210
156.428841,11695.253884,13323.706956,-70787.224015
156.431401,18357.107362,13767.830521,-67109.965625
156.433961,7550.100608,3997.112087,-72779.072310
156.436520,3552.988522,2516.700203,-74004.825107
156.439080,21910.095883,-6217.729913,-66803.527426
156.441640,5625.565159,-2220.617826,-70634.004916
156.444200,2368.659014,-148.041188,-74924.139704
156.446760,18061.024985,-8290.306550,-70480.785816
156.449320,18949.272115,3701.029710,-69255.033019
156.451879,14063.912898,8142.265362,-70174.347617
156.454439,-740.205942,-11399.171507,-75077.358804
156.456999,17024.736666,-17024.736666,-67263.184724
156.459559,8586.388927,6513.812290,-71093.662214
156.462119,4737.318029,5625.565159,-72472.634111
156.464678,18505.148550,888.247130,-69255.033019
156.467238,8142.265362,-1480.411884,-73851.606007
156.469798,15396.283594,-3849.070898,-69101.813920
156.472358,14063.912898,-10362.883188,-71093.662214
156.474918,4441.235652,-6365.771101,-72319.415011
156.477478,9622.677246,1924.535449,-71246.881314
156.480037,17912.983796,3849.070898,-67416.403824
156.482597,296.082377,-10807.006753,-74464.482406
156.485157,9326.594869,-7550.100608,-72012.976812
156.487717,18209.066173,7550.100608,-70021.128517
156.490277,12731.542202,30052.361245,-68795.375720
156.492836,3849.070898,4145.153275,-68488.937521
156.495396,4589.276840,-6809.894666,-71706.538613
156.497956,18505.148550,4293.194464,-71706.538613
156.500516,13767.830521,23834.631332,-70940.443115
156.503076,-2960.823768,20873.807564,-72166.195912
156.505635,17764.942608,7402.059420,-64658.460031
156.508198,10214.842000,2368.659014,-70634.004916
156.510761,4293.194464,1332.370696,-73545.167808
156.513324,20133.601622,12139.377449,-67416.403824
156.515887,7846.182985,-10214.842000,-72319.415011
156.518450,17468.860231,10066.800811,-70480.785816
156.521013,14656.077652,16284.530724,-66650.308326
156.523576,740.205942,592.164754,-72779.072310
156.526139,5625.565159,10214.842000,-71859.757712
156.528702,10066.800811,1480.411884,-72166.195912
156.531265,28719.990550,11399.171507,-66037.431928
156.533828,-6365.771101,20281.642811,-74617.701505
156.536391,21169.889941,5477.523971,-67109.965625
156.538954,5773.606348,4737.318029,-71859.757712
156.541517,7846.182985,4441.235652,-71859.757712
156.544080,15692.365970,1036.288319,-66803.527426
156.546643,12583.501014,-24278.754898,-71246.881314
156.549206,14656.077652,2072.576638,-71706.538613
156.551769,-8142.265362,10362.883188,-75690.235202
156.554332,18801.230927,-9030.512492,-67416.403824
156.556895,15396.283594,5625.565159,-68795.375720
156.559458,4293.194464,-3552.988522,-73851.606007
156.562021,12731.542202,-9030.512492,-69867.909418
156.564584,15396.283594,6069.688724,-70327.566716
156.567147,10362.883188,1628.453072,-70634.004916
156.569710,1184.329507,-25018.960840,-72319.415011
156.572273,13767.830521,7105.977043,-70327.566716
156.574836,13027.624579,11103.089130,-71093.662214
156.577399,10658.965565,-41155.450375,-70480.785816
156.579962,9770.718434,-9622.677246,-72932.291410
156.582525,16728.654289,-7846.182985,-70174.347617
156.585088,11399.171507,-7698.141797,-70327.566716
156.587651,8734.430116,12287.418637,-69867.909418
156.590214,8438.347739,4441.235652,-70327.566716
156.592777,7402.059420,-11695.253884,-72166.195912
156.595340,15692.365970,148.041188,-67876.061123
156.597902,16580.613101,-11399.171507,-69867.909418
156.600465,2960.823768,14804.118840,-75996.673402
156.603028,10362.883188,21614.013506,-67722.842023
156.605591,13175.665768,-1480.411884,-68335.718422
156.608154,11991.336260,6513.812290,-73238.729609
156.610684,9622.677246,32421.020260,-74464.482406
156.613213,13471.748144,11251.130318,-67416.403824
156.615742,17320.819043,-1628.453072,-65577.774629
156.618271,-10214.842000,14804.118840,-76915.987999
156.620800,19541.436869,2664.741391,-68642.156621
156.623330,18949.272115,17320.819043,-67722.842023
156.625859,3404.947333,41451.532752,-73851.606007
156.628388,11547.212695,11399.171507,-71093.662214
156.630917,14508.036463,27387.619854,-68488.937521
156.633447,11399.171507,-14063.912898,-68642.156621
156.635976,4589.276840,-11843.295072,-73238.729609
156.638505,8882.471304,9622.677246,-71859.757712
156.641034,26647.413912,13175.665768,-66956.746525
156.643563,-444.123565,19097.313304,-74924.139704
156.646093,19541.436869,1184.329507,-65271.336430
156.648622,2812.782580,3997.112087,-73698.386908
156.651151,10955.047942,13767.830521,-71246.881314
156.653680,18209.066173,-7550.100608,-66803.527426
156.656210,3849.070898,-23834.631332,-71246.881314
156.658739,3701.029710,17320.819043,-73545.167808
156.661268,7550.100608,10214.842000,-70327.566716
156.663797,17024.736666,-2960.823768,-68029.280222
156.666326,8882.471304,2516.700203,-70174.347617
156.668856,10807.006753,-7550.100608,-72012.976812
156.671385,3997.112087,-3404.947333,-74464.482406
156.673914,28275.866984,3108.864956,-64505.240932
156.676443,-6809.894666,3701.029710,-77375.645298
156.678973,13915.871710,17912.983796,-68795.375720
156.681502,13619.789333,6809.894666,-67569.622924
156.684031,13619.789333,8882.471304,-70634.004916
156.686560,9474.636058,-3701.029710,-71859.757712
156.689089,6957.935855,1480.411884,-73391.948708
156.691619,18357.107362,-12731.542202,-68488.937521
156.694148,8734.430116,-3849.070898,-71093.662214
156.696677,7994.224174,-6069.688724,-71706.538613
156.699206,8438.347739,7846.182985,-71400.100414
156.701736,11991.336260,1332.370696,-69714.690318
156.704265,11103.089130,-3108.864956,-71400.100414
156.706794,11695.253884,6809.894666,-71859.757712
156.709323,11103.089130,37602.461854,-70174.347617
156.711862,-1036.288319,16876.695478,-71706.538613
156.714400,14804.118840,-7105.977043,-69561.471218
156.716939,14656.077652,7994.224174,-72166.195912
156.719477,7254.018232,20133.601622,-74004.825107
156.722016,4885.359217,18209.066173,-70327.566716
156.724554,24130.713709,-6069.688724,-63892.364533
156.727093,-8290.306550,-1924.535449,-78141.740796
156.729632,11103.089130,22058.137072,-70021.128517
156.732170,26647.413912,44116.274143,-65730.993728
156.734709,11251.130318,50778.127621,-70021.128517
156.737247,17320.819043,-16432.571912,-68029.280222
156.739786,444.123565,11103.089130,-73238.729609
156.742324,3997.112087,38342.667796,-70787.224015
156.744863,29460.196492,-18653.189738,-62819.830836
156.747401,-3404.947333,8586.388927,-78754.617194
156.749940,17468.860231,9030.512492,-69561.471218
156.752478,18357.107362,-888.247130,-63739.145434
156.755017,1628.453072,592.164754,-74464.482406
156.757555,13767.830521,1480.411884,-71400.100414
156.760094,6661.853478,25759.166782,-74924.139704
156.762633,32124.937883,-11547.212695,-62206.954438
156.765171,8734.430116,-14063.912898,-73085.510509
156.767710,2368.659014,3552.988522,-73851.606007
156.770248,10510.924376,2960.823768,-69255.033019
156.772787,14656.077652,2812.782580,-68488.937521
156.775325,9918.759623,-5329.482782,-73238.729609
156.777864,10807.006753,-9030.512492,-71706.538613
156.780402,14211.954086,740.205942,-69867.909418
156.782941,3997.112087,-3849.070898,-74770.920605
156.785479,19985.560434,-6365.771101,-66650.308326
156.788018,3404.947333,7698.141797,-73545.167808
156.790556,10807.006753,12731.542202,-71093.662214
156.793095,16432.571912,-47077.097911,-68795.375720
156.795634,9474.636058,-12583.501014,-73238.729609
156.798172,16876.695478,9030.512492,-70634.004916
156.800711,6365.771101,-2664.741391,-70940.443115
156.803249,10658.965565,9622.677246,-69255.033019
156.805788,14656.077652,-2812.782580,-67416.403824
156.808326,1036.288319,-14656.077652,-73698.386908
156.810865,17024.736666,-6661.853478,-70021.128517
156.813411,23242.466579,-6217.729913,-67876.061123
156.815957,4885.359217,36566.173535,-72319.415011
156.818504,16284.530724,8734.430116,-64352.021832
156.821050,-9622.677246,-13027.624579,-77069.207099
156.823597,24870.919651,3552.988522,-68182.499322
156.826143,21465.972318,21317.931130,-69867.909418
156.828689,-2072.576638,6809.894666,-73391.948708
156.831236,19689.478057,10214.842000,-65271.336430
156.833782,-9622.677246,7105.977043,-77835.302597
156.836328,31088.649564,1776.494261,-62666.611736
156.838875,18061.024985,7550.100608,-67722.842023
156.841421,7698.141797,-15692.365970,-72472.634111
156.843967,11547.212695,-3404.947333,-72166.195912
156.846514,9178.553681,32124.937883,-70327.566716
156.849060,10658.965565,22058.137072,-67569.622924
156.851606,10658.965565,8586.388927,-71400.100414
156.854153,8586.388927,13027.624579,-74004.825107
156.856699,15248.242405,3256.906145,-69255.033019
156.859245,11251.130318,3256.906145,-67722.842023
156.861792,296.082377,10362.883188,-74004.825107
156.864338,13915.871710,10658.965565,-71400.100414
156.866884,1480.411884,14952.160028,-72472.634111
156.869431,21465.972318,-888.247130,-67109.965625
156.871977,7698.141797,-3552.988522,-72779.072310
156.874523,12879.583391,-16284.530724,-69408.252119
156.877070,8142.265362,-2960.823768,-69561.471218
156.879616,3997.112087,3701.029710,-73698.386908
156.882163,15692.365970,-4589.276840,-70174.347617
156.884709,19245.354492,2220.617826,-68488.937521
156.887255,4737.318029,-1480.411884,-73698.386908
156.889802,7254.018232,-296.082377,-72472.634111
156.892348,15840.407159,15396.283594,-67416.403824
156.894894,7698.141797,18209.066173,-69867.909418
156.897441,16284.530724,-7254.018232,-68795.375720
156.899987,5033.400406,-5033.400406,-74004.825107
156.902533,17912.983796,-1480.411884,-70634.004916
156.905080,11251.130318,-5181.441594,-70327.566716
156.907626,6957.935855,-9622.677246,-72625.853210
156.910172,8438.347739,8438.347739,-71400.100414
156.912719,10955.047942,4737.318029,-68795.375720
156.915271,13619.789333,-3552.988522,-68182.499322
156.917823,7254.018232,-8290.306550,-71400.100414
156.920375,9326.594869,-1480.411884,-73698.386908
156.922927,13323.706956,29312.155303,-68642.156621
156.925479,16876.695478,19837.519246,-63279.488135
156.928031,-4145.153275,-7698.141797,-78448.178995
156.930583,16728.654289,7994.224174,-70787.224015
156.933136,31828.855506,740.205942,-64045.583633
156.935688,-11991.336260,10658.965565,-76915.987999
156.938240,19393.395680,29460.196492,-66037.431928
156.940792,17172.777854,13915.871710,-67109.965625
156.943344,-14952.160028,12731.542202,-79673.931792
156.945896,21614.013506,-22502.260637,-66190.651027
156.948448,22946.384202,14656.077652,-68029.280222
156.951000,2516.700203,20873.807564,-73391.948708
156.953552,9326.594869,1480.411884,-67722.842023
156.956104,5625.565159,11399.171507,-72012.976812
156.958657,15988.448347,-3701.029710,-70174.347617
156.961209,26499.372724,24426.796086,-66803.527426
156.963761,-1776.494261,4589.276840,-74464.482406
156.966313,-3701.029710,7550.100608,-74158.044206
156.968865,17468.860231,20577.725188,-68488.937521
156.971417,26499.372724,10510.924376,-65271.336430
156.973969,-6513.812290,-14656.077652,-76303.111601
156.976521,17616.901420,-21762.054695,-69561.471218
156.979073,16284.530724,8142.265362,-69408.252119
156.981626,7105.977043,-1776.494261,-69714.690318
156.984178,6365.771101,-5773.606348,-72319.415011
156.986730,7550.100608,4441.235652,-72012.976812
156.989282,20281.642811,-4589.276840,-68335.718422
156.991834,6217.729913,2220.617826,-72779.072310
156.994386,12583.501014,1628.453072,-70634.004916
156.996943,10658.965565,-18801.230927,-70021.128517
156.999500,5921.647536,20281.642811,-71400.100414
157.002057,14359.995275,13619.789333,-70327.566716
157.004614,8586.388927,-29756.278868,-71093.662214
157.007171,13471.748144,15100.201217,-72319.415011
157.009728,12435.459826,22946.384202,-71553.319513
157.012286,12583.501014,-18653.189738,-69408.252119
157.014843,5181.441594,-3701.029710,-72166.195912
157.017400,10807.006753,444.123565,-69561.471218
157.019957,10955.047942,-15544.324782,-69255.033019
157.022514,3552.988522,-10362.883188,-75537.016103
157.025071,10362.883188,15248.242405,-70787.224015
157.027628,28275.866984,45448.644839,-64811.679131
157.030185,-7402.059420,12435.459826,-73391.948708
157.032742,2812.782580,-31088.649564,-72779.072310
157.035299,29016.072926,16284.530724,-67109.965625
157.037856,7254.018232,20577.725188,-73391.948708
157.040413,5033.400406,5033.400406,-71246.881314
157.042970,8290.306550,36862.255912,-68795.375720
157.045527,19393.395680,-12287.418637,-67109.965625
157.048085,14359.995275,-2664.741391,-69408.252119
157.050642,-4589.276840,38046.585419,-78448.178995
157.053199,29904.320057,1332.370696,-63739.145434
157.055756,6069.688724,-2072.576638,-71859.757712
157.058313,9326.594869,15988.448347,-71400.100414
157.060870,12583.501014,18801.230927,-68335.718422
157.063427,-3108.864956,13323.706956,-75996.673402
157.065984,34937.720462,4885.359217,-63279.488135
157.068541,15692.365970,-13767.830521,-67569.622924
157.071098,-16432.571912,1332.370696,-79980.369991
157.073655,20429.683999,11843.295072,-75230.577904
157.076212,32124.937883,14508.036463,-62666.611736
157.078769,-4589.276840,-9178.553681,-76303.111601
157.081326,14211.954086,-21169.889941,-70327.566716
157.083883,21614.013506,7698.141797,-68182.499322
157.086441,-12139.377449,18801.230927,-76303.111601
157.088998,27683.702231,-3701.029710,-63739.145434
157.091555,1332.370696,3552.988522,-73851.606007
157.094112,8586.388927,-13619.789333,-73851.606007
157.096669,20429.683999,-2516.700203,-67109.965625
157.099230,9770.718434,12583.501014,-70634.004916
157.101792,13175.665768,13027.624579,-68642.156621
157.104353,-888.247130,6069.688724,-71553.319513
157.106915,16728.654289,-12435.459826,-69101.813920
157.109476,12583.501014,-14952.160028,-71553.319513
157.112037,13027.624579,-12435.459826,-72472.634111
157.114599,11103.089130,-2812.782580,-70940.443115
157.117160,9622.677246,-148.041188,-71093.662214
157.119722,9918.759623,444.123565,-71093.662214
157.122283,8734.430116,-3108.864956,-71093.662214
157.124844,12139.377449,1480.411884,-69101.813920
157.127406,6809.894666,-2072.576638,-72319.415011
157.129967,18949.272115,-8734.430116,-70940.443115
157.132529,6365.771101,36714.214723,-70940.443115
157.135090,13323.706956,23538.548956,-65271.336430
157.137652,2812.782580,-22946.384202,-74464.482406
157.140213,16728.654289,9178.553681,-71553.319513
157.142774,20133.601622,29312.155303,-68642.156621
157.145336,-6069.688724,21169.889941,-72932.291410
157.147897,22206.178260,10066.800811,-65118.117330
157.150459,6661.853478,4441.235652,-71246.881314
157.153020,296.082377,19689.478057,-73851.606007
157.155582,17320.819043,3849.070898,-68948.594820
157.158143,7994.224174,7402.059420,-72779.072310
157.160704,12731.542202,22354.219448,-68488.937521
157.163266,4737.318029,19541.436869,-70634.004916
157.165827,15248.242405,-888.247130,-68182.499322
157.168389,10362.883188,6069.688724,-72166.195912
157.170950,10362.883188,15544.324782,-72779.072310
157.173512,12287.418637,13175.665768,-68029.280222
157.176073,2072.576638,10807.006753,-71859.757712
157.178634,21169.889941,4737.318029,-67722.842023
157.181196,8290.306550,16580.613101,-70787.224015
157.183757,3404.947333,-4589.276840,-74158.044206
157.186319,17172.777854,-6957.935855,-69714.690318
157.188880,17320.819043,12139.377449,-66037.431928
157.191441,-296.082377,-7550.100608,-73851.606007
157.194003,4293.194464,-5773.606348,-72472.634111
157.196564,22206.178260,2368.659014,-66497.089226
157.199126,11547.212695,-4737.318029,-72319.415011
157.201689,3256.906145,-4145.153275,-72319.415011
157.204254,11991.336260,4145.153275,-71553.319513
157.206818,8586.388927,20429.683999,-69867.909418
157.209382,8290.306550,-26943.496289,-69101.813920
157.211946,10955.047942,-13027.624579,-72319.415011
157.214510,14952.160028,12731.542202,-72166.195912
157.217074,17764.942608,-23538.548956,-69561.471218
157.219638,592.164754,-2368.659014,-74004.825107
157.222202,19837.519246,5477.523971,-67416.403824
157.224767,11251.130318,4441.235652,-69101.813920
157.227331,-1776.494261,-4885.359217,-75537.016103
157.229895,19837.519246,1332.370696,-69408.252119
157.232459,10658.965565,10807.006753,-71859.757712
157.235023,21762.054695,27535.661042,-66650.308326
157.237587,-888.247130,4737.318029,-70327.566716
157.240151,-3256.906145,-18949.272115,-75996.673402
157.242716,33605.349767,11251.130318,-66343.870127
157.245280,13471.748144,27979.784608,-70021.128517
157.247844,6661.853478,-7994.224174,-71553.319513
157.250408,592.164754,2960.823768,-73085.510509
157.252972,10955.047942,12287.418637,-69255.033019
157.255536,23982.672521,-2812.782580,-65730.993728
157.258100,2072.576638,10066.800811,-74770.920605
157.260664,10362.883188,15988.448347,-72779.072310
157.263229,17320.819043,7254.018232,-69255.033019
157.265793,11547.212695,9030.512492,-67876.061123
157.268357,16728.654289,-296.082377,-66037.431928
157.270921,-9918.759623,25907.207970,-79980.369991
157.273485,37158.338288,14656.077652,-61287.639840
157.276049,18653.189738,-25907.207970,-66497.089226
157.278613,-17616.901420,-19393.395680,-79673.931792
157.281178,15248.242405,23538.548956,-70021.128517
157.283742,20133.601622,21021.848753,-66650.308326
157.286306,21021.848753,-10955.047942,-66650.308326
157.288870,-7550.100608,-9030.512492,-80593.246390
157.291434,25759.166782,1184.329507,-65424.555529
157.293998,10214.842000,-8586.388927,-68642.156621
157.296562,1036.288319,-1924.535449,-73391.948708
157.299126,11399.171507,2664.741391,-70787.224015
157.301691,16876.695478,-5773.606348,-69101.813920
157.304257,11843.295072,-4441.235652,-70940.443115
157.306823,3849.070898,-6217.729913,-73698.386908
157.309390,7105.977043,-19837.519246,-70174.347617
157.311956,10955.047942,-3701.029710,-70174.347617
157.314523,13027.624579,5625.565159,-70021.128517
157.317089,12435.459826,12139.377449,-71859.757712
157.319655,6957.935855,11103.089130,-74464.482406
157.322222,20577.725188,-13323.706956,-66803.527426
157.324788,4145.153275,-7846.182985,-72012.976812
157.327355,6957.935855,1776.494261,-70940.443115
157.329921,7846.182985,444.123565,-71553.319513
157.332487,17764.942608,-4737.318029,-69408.252119
157.335054,1776.494261,-1776.494261,-71706.538613
157.337620,12731.542202,28127.825796,-70327.566716
157.340186,4737.318029,1332.370696,-68182.499322
157.342753,3997.112087,-10807.006753,-71706.538613
157.345319,25759.166782,6957.935855,-68488.937521
157.347886,888.247130,25018.960840,-76149.892501
157.350452,19985.560434,12731.542202,-63432.707234
157.353018,9030.512492,4737.318029,-69561.471218
157.355585,-5329.482782,6957.935855,-75996.673402
157.358151,32124.937883,10658.965565,-62513.392637
157.360718,-1036.288319,23538.548956,-75383.797003
157.363284,10214.842000,15692.365970,-70787.224015
157.365850,18357.107362,10510.924376,-66956.746525
157.368417,-3552.988522,13619.789333,-74464.482406
157.370983,14211.954086,9918.759623,-67569.622924
157.373550,22650.301825,19245.354492,-66650.308326
157.376116,1332.370696,16432.571912,-77988.521696
157.378682,9030.512492,16876.695478,-67263.184724
157.381249,23834.631332,-7105.977043,-64505.240932
157.383815,-8882.471304,4145.153275,-79367.493593
157.386382,21465.972318,33309.267390,-66037.431928
157.388948,35825.967593,-6957.935855,-62513.392637
157.391514,-9622.677246,-9474.636058,-79214.274493
157.394081,19245.354492,1628.453072,-66037.431928
157.396647,7254.018232,2664.741391,-70480.785816
157.399214,9326.594869,-8882.471304,-69714.690318
157.401780,7994.224174,296.082377,-73391.948708
157.404346,16728.654289,-3256.906145,-70021.128517
157.406915,14063.912898,-16580.613101,-69255.033019
157.409483,1628.453072,-14508.036463,-73698.386908
157.412052,14952.160028,-1924.535449,-68488.937521
157.414620,12139.377449,-14804.118840,-68795.375720
157.417188,11103.089130,15396.283594,-71706.538613
157.419757,20577.725188,-5033.400406,-70021.128517
157.422325,8438.347739,1036.288319,-71246.881314
157.424894,17616.901420,11251.130318,-67722.842023
157.427462,-296.082377,-9918.759623,-72166.195912
157.430030,12435.459826,-2960.823768,-70021.128517
157.432599,17764.942608,6957.935855,-69561.471218
157.435167,-1184.329507,-6217.729913,-74464.482406
157.437736,24130.713709,-8290.306550,-67109.965625
157.440304,9770.718434,43228.027013,-69408.252119
157.442872,1924.535449,10955.047942,-69255.033019
157.445441,13027.624579,12139.377449,-72166.195912
157.448009,19837.519246,19689.478057,-70174.347617
157.450578,14804.118840,-1480.411884,-69867.909418
157.453146,-1332.370696,10510.924376,-72012.976812
157.455714,14656.077652,2664.741391,-68795.375720
157.458283,12879.583391,20577.725188,-69408.252119
157.460851,1628.453072,15396.283594,-74770.920605
157.463420,25907.207970,8882.471304,-65884.212828
157.465988,2516.700203,-11399.171507,-75230.577904
157.468556,6069.688724,-10658.965565,-70021.128517
157.471125,10658.965565,27091.537477,-68335.718422
157.473693,13767.830521,16284.530724,-70021.128517
157.476262,11695.253884,-8734.430116,-72625.853210
157.478830,8290.306550,-4293.194464,-71706.538613
157.481398,14063.912898,15988.448347,-67569.622924
157.483967,2220.617826,11399.171507,-74617.701505
157.486535,14804.118840,11251.130318,-67569.622924
157.489104,14063.912898,-17912.983796,-72012.976812
157.491672,9474.636058,-6513.812290,-72319.415011
157.494240,7994.224174,13027.624579,-71246.881314
157.496809,11991.336260,2664.741391,-68642.156621
157.499377,1776.494261,4589.276840,-72472.634111
157.501946,22650.301825,-5181.441594,-66803.527426
157.504514,5773.606348,-9770.718434,-74464.482406
157.507082,6809.894666,-4441.235652,-72932.291410
157.509652,19097.313304,14804.118840,-68488.937521
157.512221,5773.606348,4885.359217,-69867.909418
157.514790,7846.182985,-2220.617826,-70480.785816
157.517360,8586.388927,1184.329507,-72012.976812
157.519929,20281.642811,17024.736666,-70174.347617
157.522498,13175.665768,25907.207970,-71859.757712
157.525068,13175.665768,-7698.141797,-70327.566716
157.527637,0.000000,-8142.265362,-72472.634111
157.530206,10214.842000,-7698.141797,-70174.347617
157.532775,18209.066173,-9918.759623,-69255.033019
157.535345,7105.977043,-4293.194464,-73238.729609
157.537914,2516.700203,7254.018232,-75690.235202
157.540483,21169.889941,25759.166782,-66190.651027
157.543053,5329.482782,21169.889941,-68029.280222
157.545622,-2072.576638,-9178.553681,-75996.673402
157.548191,19393.395680,8438.347739,-69867.909418
157.550761,3997.112087,25167.002028,-74004.825107
157.553330,18061.024985,11695.253884,-64811.679131
157.555899,8734.430116,-3108.864956,-71400.100414
157.558468,-5329.482782,32865.143825,-74464.482406
157.561038,32421.020260,7698.141797,-62973.049936
157.563607,3997.112087,-16136.489536,-74464.482406
157.566176,11843.295072,-1628.453072,-71706.538613
157.568746,16580.613101,35677.926404,-70021.128517
157.571315,-3256.906145,28719.990550,-74158.044206
157.573884,7698.141797,23094.425390,-72319.415011
157.576454,34789.679274,15840.407159,-63585.926334
157.579023,-3849.070898,9178.553681,-74158.044206
157.581592,20281.642811,-23834.631332,-65577.774629
157.584161,148.041188,11547.212695,-73698.386908
157.586731,15988.448347,25315.043216,-70174.347617
157.589300,11547.212695,-15988.448347,-70634.004916
157.591869,9918.759623,-13767.830521,-73085.510509
157.594439,20873.807564,1332.370696,-68029.280222
157.597008,-6069.688724,9622.677246,-76303.111601
157.599577,6661.853478,-5033.400406,-69408.252119
157.602147,23094.425390,-592.164754,-66343.870127
157.604716,5329.482782,-1184.329507,-74464.482406
157.607285,10807.006753,-4145.153275,-72012.976812
157.609854,9770.718434,12435.459826,-70480.785816
157.612425,11399.171507,-20281.642811,-67569.622924
157.614995,6661.853478,-10066.800811,-71706.538613
157.617565,10658.965565,-11251.130318,-71400.100414
157.620135,17912.983796,-9770.718434,-70174.347617
157.622706,9030.512492,3701.029710,-73545.167808
157.625276,21910.095883,296.082377,-69101.813920
157.627846,9178.553681,6217.729913,-68335.718422
157.630416,-296.082377,-10214.842000,-74617.701505
157.632986,25167.002028,-740.205942,-67109.965625
157.635557,1628.453072,1480.411884,-74158.044206
157.638127,21910.095883,-2072.576638,-68488.937521
157.640697,3404.947333,13027.624579,-71246.881314
157.643267,3552.988522,4589.276840,-70174.347617
157.645837,17468.860231,5181.441594,-70174.347617
157.648408,16284.530724,1776.494261,-71246.881314
157.650978,6809.894666,24130.713709,-74158.044206
157.653548,296.082377,28868.031738,-72166.195912
157.656118,14359.995275,13619.789333,-67263.184724
157.658689,18357.107362,7994.224174,-66343.870127
157.661259,9030.512492,-3997.112087,-72166.195912
157.663829,12731.542202,-13027.624579,-71400.100414
157.666399,3701.029710,17616.901420,-74311.263306
157.668969,22798.343014,19245.354492,-65577.774629
157.671540,-1628.453072,9474.636058,-72932.291410
157.674110,11843.295072,16876.695478,-70787.224015
157.676680,25315.043216,13767.830521,-67569.622924
157.679250,-13027.624579,11399.171507,-77988.521696
157.681820,10658.965565,18357.107362,-69255.033019
157.684391,25611.125593,-9770.718434,-65118.117330
157.686961,-3108.864956,19097.313304,-76762.768900
157.689531,25167.002028,-18653.189738,-67416.403824
157.692101,888.247130,-7105.977043,-74924.139704
157.694672,10214.842000,14508.036463,-70480.785816
157.697242,18505.148550,-1036.288319,-67416.403824
157.699812,-6217.729913,-6957.935855,-74770.920605
157.702382,25018.960840,-5773.606348,-66956.746525
157.704952,26647.413912,1924.535449,-66497.089226
157.707523,3849.070898,6217.729913,-74311.263306
157.710093,6661.853478,17764.942608,-71400.100414
157.712663,3997.112087,-11251.130318,-70787.224015
157.715234,17764.942608,-18505.148550,-67876.061123
157.717805,13471.748144,11547.212695,-70787.224015
157.720376,13915.871710,-19689.478057,-72932.291410
157.722947,7550.100608,10214.842000,-72166.195912
157.725518,16284.530724,-1776.494261,-66650.308326
157.728089,5625.565159,-10214.842000,-70634.004916
157.730660,7550.100608,444.123565,-74924.139704
157.733231,22354.219448,-11695.253884,-66650.308326
157.735802,3552.988522,-4145.153275,-74617.701505
157.738373,8882.471304,39082.873738,-71706.538613
157.740943,19837.519246,41747.615129,-61594.078039
157.743514,-10510.924376,-16728.654289,-78754.617194
157.746085,22206.178260,1628.453072,-70634.004916
157.748656,18357.107362,34789.679274,-70787.224015
157.751227,2516.700203,17764.942608,-69561.471218
157.753798,16432.571912,-12139.377449,-65884.212828
157.756369,10510.924376,4589.276840,-71400.100414
157.758940,-2220.617826,8438.347739,-77069.207099
157.761511,29608.237680,29312.155303,-63739.145434
157.764082,10510.924376,38490.708984,-71706.538613
157.766653,3701.029710,-1184.329507,-75690.235202
157.769224,6217.729913,888.247130,-67416.403824
157.771795,23538.548956,12583.501014,-66190.651027
157.774366,5477.523971,21317.931130,-74770.920605
157.776937,2960.823768,22650.301825,-72472.634111
157.779508,28275.866984,3108.864956,-62360.173537
157.782079,-7846.182985,-8142.265362,-77682.083497
157.784650,1776.494261,-2220.617826,-73851.606007
157.787221,24130.713709,-3552.988522,-68488.937521
157.789792,1332.370696,6217.729913,-75383.797003
157.792362,17172.777854,1184.329507,-67109.965625
157.794933,5477.523971,592.164754,-73238.729609
157.797504,9326.594869,-7254.018232,-68488.937521
157.800075,14508.036463,-4441.235652,-69714.690318
157.802646,9918.759623,8290.306550,-73391.948708
157.805217,11251.130318,-13175.665768,-72932.291410
157.807788,10214.842000,-20281.642811,-71093.662214
157.810359,15248.242405,1480.411884,-67416.403824
157.812930,15100.201217,-1628.453072,-69255.033019
157.815501,-148.041188,1628.453072,-74770.920605
157.818039,16432.571912,-5773.606348,-71859.757712
157.820577,25167.002028,-11399.171507,-67722.842023
157.823116,592.164754,-8290.306550,-73238.729609
157.825654,4293.194464,592.164754,-71553.319513
157.828192,14063.912898,9326.594869,-70327.566716
157.830730,15840.407159,-8438.347739,-70940.443115
157.833269,-740.205942,8438.347739,-75996.673402
157.835807,19837.519246,28275.866984,-67263.184724
157.838345,27387.619854,5625.565159,-59602.229744
157.840883,-9178.553681,-14063.912898,-78448.178995
157.843421,23094.425390,10362.883188,-69408.252119
157.845960,12583.501014,37750.503042,-72166.195912
157.848498,5773.606348,11991.336260,-69714.690318
157.851036,15544.324782,-17172.777854,-67416.403824
157.853574,444.123565,31384.731941,-72472.634111
157.856112,15988.448347,19097.313304,-67722.842023
157.858651,19393.395680,-8290.306550,-69867.909418
157.861189,5921.647536,-3997.112087,-71400.100414
157.863727,2516.700203,-11251.130318,-73545.167808
157.866265,2516.700203,10807.006753,-71706.538613
157.868803,19245.354492,10955.047942,-68642.156621
157.871342,21317.931130,9030.512492,-66956.746525
157.873880,-3701.029710,11547.212695,-74924.139704
157.876418,7254.018232,15988.448347,-70940.443115
157.878956,18505.148550,3997.112087,-67263.184724
157.881494,17468.860231,17912.983796,-68029.280222
157.884033,444.123565,-3701.029710,-75537.016103
157.886571,12583.501014,-4145.153275,-73238.729609
157.889109,23686.590144,9918.759623,-62819.830836
157.891647,6957.935855,-11251.130318,-72166.195912
157.894186,-740.205942,-5033.400406,-72779.072310
157.896724,15692.365970,-8290.306550,-70174.347617
157.899262,22946.384202,888.247130,-68182.499322
157.901800,-592.164754,-2960.823768,-76609.549800
157.904338,15100.201217,-25018.960840,-68948.594820
157.906877,7994.224174,7550.100608,-70480.785816
157.909415,16432.571912,-3108.864956,-67876.061123
157.911953,6069.688724,-1184.329507,-72166.195912
157.914491,444.123565,-2664.741391,-78601.398095
157.917029,23094.425390,2368.659014,-66803.527426
157.919575,9030.512492,10658.965565,-68488.937521
157.922120,0.000000,-14656.077652,-73698.386908
157.924665,12879.583391,4441.235652,-70940.443115
157.927210,16728.654289,-6661.853478,-69561.471218
157.929755,18357.107362,-8734.430116,-68182.499322
157.932300,-3849.070898,4885.359217,-74924.139704
157.934845,5625.565159,19985.560434,-68029.280222
157.937390,19689.478057,4589.276840,-67109.965625
157.939936,30940.608376,11843.295072,-66190.651027
157.942481,-5477.523971,-888.247130,-78141.740796
157.945026,11399.171507,16136.489536,-66650.308326
157.947571,18061.024985,20429.683999,-67263.184724
157.950116,3849.070898,-1924.535449,-72012.976812
157.952661,6957.935855,22650.301825,-71246.881314
157.955206,21910.095883,13323.706956,-69867.909418
157.957752,10955.047942,-5181.441594,-70940.443115
157.960297,9474.636058,12287.418637,-68182.499322
157.962842,10510.924376,11251.130318,-69561.471218
157.965387,5329.482782,15840.407159,-74158.044206
157.967932,12731.542202,19393.395680,-69561.471218
157.970477,12583.501014,13619.789333,-69408.252119
157.973022,-888.247130,13027.624579,-74311.263306
157.975567,14804.118840,8438.347739,-68335.718422
157.978113,21614.013506,-20281.642811,-67722.842023
157.980658,3552.988522,1628.453072,-74770.920605
157.983203,11843.295072,4885.359217,-70787.224015
157.985748,9326.594869,9178.553681,-68948.594820
157.988293,10510.924376,-6217.729913,-69408.252119
157.990838,10807.006753,296.082377,-69867.909418
157.993383,8438.347739,5181.441594,-73085.510509
157.995928,17468.860231,2072.576638,-70634.004916
157.998474,7698.141797,14508.036463,-72472.634111
158.001019,6809.894666,-19541.436869,-69867.909418
158.003564,11695.253884,-6217.729913,-69561.471218
158.006109,7254.018232,5921.647536,-72932.291410
158.008654,14952.160028,-20429.683999,-71400.100414
158.011199,13767.830521,4737.318029,-71400.100414
158.013744,11843.295072,1036.288319,-69561.471218
158.016290,-296.082377,-2516.700203,-72319.415011
158.018835,24278.754898,9474.636058,-69408.252119
158.021386,24426.796086,-15100.201217,-65424.555529
158.023937,-740.205942,-13175.665768,-75843.454302
158.026488,6957.935855,34197.514520,-71859.757712
158.029039,18061.024985,31828.855506,-62053.735338
158.031591,-1628.453072,-9030.512492,-75537.016103
158.034142,11695.253884,14063.912898,-74311.263306
158.036693,20577.725188,11399.171507,-68182.499322
158.039244,8586.388927,10955.047942,-69561.471218
158.041796,4441.235652,5477.523971,-71859.757712
158.044347,6513.812290,13175.665768,-70787.224015
158.046898,9770.718434,-24574.837274,-72625.853210
158.049449,17320.819043,-34197.514520,-69255.033019
158.052000,12583.501014,39082.873738,-71553.319513
158.054552,20577.725188,34493.596897,-67569.622924
158.057103,-4737.318029,-6957.935855,-73545.167808
158.059654,10807.006753,10658.965565,-70021.128517
158.062205,28868.031738,-5921.647536,-64198.802732
158.064756,-12287.418637,10510.924376,-78907.836294
158.067308,17468.860231,31828.855506,-68488.937521
158.069859,14804.118840,16728.654289,-67876.061123
158.072410,11547.212695,-19985.560434,-70327.566716
158.074961,10214.842000,-14952.160028,-74004.825107
158.077512,13471.748144,888.247130,-68642.156621
158.080064,9178.553681,-4145.153275,-70787.224015
158.082615,3849.070898,3849.070898,-73085.510509
158.085166,14952.160028,6513.812290,-67722.842023
158.087717,4737.318029,-8586.388927,-73238.729609
158.090269,18653.189738,-18505.148550,-70174.347617
158.092820,8882.471304,-8290.306550,-73698.386908
158.095371,6809.894666,12139.377449,-71706.538613
158.097922,9622.677246,9178.553681,-69101.813920
158.100473,14359.995275,-1628.453072,-67109.965625
158.103025,9622.677246,-27683.702231,-75537.016103
158.105576,13767.830521,-3108.864956,-71400.100414
158.108127,19097.313304,-148.041188,-65884.212828
158.110678,-2960.823768,10066.800811,-75230.577904
158.113229,11251.130318,6365.771101,-69867.909418
158.115781,21465.972318,-13915.871710,-67416.403824
158.118332,4145.153275,2960.823768,-74004.825107
158.120883,17024.736666,35233.802839,-67876.061123
158.123438,14952.160028,13767.830521,-63126.269035
158.125994,1184.329507,0.000000,-74464.482406
158.128549,22354.219448,10807.006753,-66497.089226
158.131105,10807.006753,13471.748144,-74311.263306
158.133660,4885.359217,11695.253884,-70174.347617
158.136215,13175.665768,0.000000,-67569.622924
158.138771,12435.459826,3997.112087,-69714.690318
158.141326,2220.617826,12583.501014,-74770.920605
158.143882,17764.942608,14508.036463,-69714.690318
158.146437,15396.283594,50482.045244,-71093.662214
158.148992,14656.077652,34493.596897,-66803.527426
158.151548,4293.194464,-148.041188,-71859.757712
158.154103,13471.748144,-15544.324782,-68948.594820
158.156658,16136.489536,-12287.418637,-68182.499322
158.159214,0.000000,13471.748144,-74311.263306
158.161769,17616.901420,20873.807564,-68335.718422
158.164325,9326.594869,28127.825796,-69408.252119
158.166880,11843.295072,-17468.860231,-70021.128517
158.169435,11843.295072,-23982.672521,-72319.415011
158.171991,8290.306550,6069.688724,-70787.224015
158.174546,13471.748144,5033.400406,-68488.937521
158.177101,11695.253884,-7254.018232,-68642.156621
158.179657,10658.965565,-740.205942,-70174.347617
158.182212,10066.800811,3108.864956,-72166.195912
158.184768,13767.830521,-20429.683999,-71093.662214
158.187323,11103.089130,-12583.501014,-72472.634111
158.189878,10807.006753,3256.906145,-69101.813920
158.192434,9326.594869,3552.988522,-70174.347617
158.194989,4293.194464,17468.860231,-73085.510509
158.197545,23538.548956,-1332.370696,-67876.061123
158.200100,9326.594869,-8438.347739,-72166.195912
158.202655,2072.576638,6661.853478,-72932.291410
158.205211,18061.024985,-10066.800811,-68642.156621
158.207766,6069.688724,1332.370696,-71400.100414
158.210321,14359.995275,-5625.565159,-71093.662214
158.212877,14952.160028,19985.560434,-70940.443115
158.215432,2368.659014,20873.807564,-70327.566716
158.217988,17616.901420,-4145.153275,-63739.145434
158.220543,-7105.977043,5773.606348,-79061.055394
158.223098,26351.331535,19245.354492,-66956.746525
158.225658,17764.942608,1628.453072,-69101.813920
158.228217,9622.677246,6809.894666,-68948.594820
158.230776,4441.235652,27831.743419,-72625.853210
158.233335,19541.436869,-14952.160028,-66190.651027
158.235894,6365.771101,-13027.624579,-72472.634111
158.238453,9770.718434,14063.912898,-72472.634111
158.241012,19689.478057,7254.018232,-68948.594820
158.243571,3552.988522,9770.718434,-72625.853210
158.246130,14508.036463,11991.336260,-67263.184724
158.248689,9622.677246,5033.400406,-70174.347617
158.251248,6365.771101,13175.665768,-72166.195912
158.253807,16728.654289,12879.583391,-71093.662214
158.256366,18653.189738,13915.871710,-66650.308326
158.258925,5773.606348,-2664.741391,-74770.920605
158.261484,21465.972318,-7105.977043,-68642.156621
158.264043,3552.988522,2220.617826,-73085.510509
158.266602,4293.194464,-3404.947333,-70787.224015
158.269161,18061.024985,-5773.606348,-68795.375720
158.271720,6957.935855,-1036.288319,-71246.881314
158.274279,3997.112087,-6513.812290,-72472.634111
158.276838,25167.002028,-10658.965565,-66956.746525
158.279397,1924.535449,-592.164754,-76762.768900
158.281956,5921.647536,-17024.736666,-70940.443115
158.284515,8142.265362,-13027.624579,-69101.813920
158.287074,12731.542202,9030.512492,-71093.662214
158.289633,20133.601622,-14656.077652,-69714.690318
158.292192,-740.205942,-1332.370696,-74770.920605
158.294751,18653.189738,8290.306550,-67569.622924
158.297310,9622.677246,-1184.329507,-72625.853210
158.299869,7994.224174,-8586.388927,-71400.100414
158.302428,19689.478057,-20281.642811,-66343.870127
158.304987,7105.977043,-1036.288319,-74311.263306
158.307546,-6661.853478,26943.496289,-76915.987999
158.310105,18061.024985,29460.196492,-62819.830836
158.312664,6957.935855,-12435.459826,-71706.538613
158.315223,6957.935855,11695.253884,-76609.549800
158.317782,19393.395680,26943.496289,-69867.909418
158.320341,7846.182985,27535.661042,-68642.156621
158.322900,4293.194464,14508.036463,-72932.291410
158.325459,12139.377449,23094.425390,-70634.004916
158.328021,7105.977043,-12287.418637,-70940.443115
158.330583,7550.100608,10066.800811,-73238.729609
158.333145,23094.425390,23538.548956,-67109.965625
158.335708,15988.448347,15248.242405,-68642.156621
158.338270,-11991.336260,-13323.706956,-77988.521696
158.340832,24870.919651,14508.036463,-64505.240932
158.343394,21910.095883,-6661.853478,-66956.746525
158.345957,-14508.036463,12879.583391,-79520.712692
158.348519,26943.496289,17320.819043,-64505.240932
158.351081,3997.112087,5773.606348,-72625.853210
158.353644,14952.160028,-17320.819043,-72012.976812
158.356206,17320.819043,1184.329507,-70021.128517
158.358768,-9770.718434,19541.436869,-75230.577904
158.361330,16580.613101,-1628.453072,-68488.937521
158.363893,15988.448347,-1036.288319,-68488.937521
158.366455,-1776.494261,-12139.377449,-75383.797003
158.369017,22946.384202,-6809.894666,-67569.622924
158.371579,11103.089130,-10214.842000,-74158.044206
158.374142,7846.182985,12731.542202,-72012.976812
158.376704,9622.677246,19245.354492,-68948.594820
158.379266,5773.606348,-52998.745447,-70940.443115
158.381828,12139.377449,-14211.954086,-72779.072310
158.384391,21614.013506,22502.260637,-69255.033019
158.386953,8142.265362,-4589.276840,-70634.004916
158.389515,3404.947333,13175.665768,-72932.291410
158.392078,18505.148550,8142.265362,-69561.471218
158.394640,12583.501014,-13323.706956,-69714.690318
158.397202,8586.388927,-2960.823768,-72166.195912
158.399764,7402.059420,23834.631332,-72012.976812
158.402327,13471.748144,22058.137072,-64198.802732
158.404889,888.247130,-12139.377449,-73545.167808
158.407451,13027.624579,10362.883188,-72012.976812
158.410013,15544.324782,16136.489536,-71246.881314
158.412576,15692.365970,20133.601622,-66037.431928
158.415138,3404.947333,7994.224174,-71706.538613
158.417700,13175.665768,12139.377449,-70327.566716
158.420262,13175.665768,-1480.411884,-70327.566716
158.422825,14656.077652,-1184.329507,-68642.156621
158.425387,6365.771101,38490.708984,-75537.016103
158.427949,9918.759623,29312.155303,-70634.004916
158.430513,14063.912898,4737.318029,-66037.431928
158.433078,13471.748144,-1628.453072,-67569.622924
158.435642,2516.700203,-14063.912898,-76456.330700
158.438206,-7550.100608,5773.606348,-77375.645298
158.440770,14656.077652,20873.807564,-67722.842023
158.443335,19393.395680,-2220.617826,-68795.375720
158.445899,4145.153275,7698.141797,-74464.482406
158.448463,22946.384202,3552.988522,-66650.308326
158.451027,-1480.411884,-1924.535449,-71706.538613
158.453592,11991.336260,-3404.947333,-71400.100414
158.456156,14508.036463,2516.700203,-68642.156621
158.458720,888.247130,-10066.800811,-73698.386908
158.461284,25759.166782,-10066.800811,-66497.089226
158.463849,2368.659014,14656.077652,-76915.987999
158.466413,7698.141797,3701.029710,-71093.662214
158.468977,11103.089130,11103.089130,-69867.909418
158.471541,6661.853478,3552.988522,-71553.319513
158.474106,17468.860231,-9030.512492,-70480.785816
158.476670,7105.977043,-9030.512492,-72932.291410
158.479234,7254.018232,-1776.494261,-70327.566716
158.481798,17024.736666,-3108.864956,-68795.375720
158.484363,11695.253884,296.082377,-70327.566716
158.486927,6809.894666,-11251.130318,-72779.072310
158.489491,15396.283594,5773.606348,-68642.156621
158.492055,4145.153275,4737.318029,-70940.443115
158.494620,9326.594869,-6069.688724,-66956.746525
158.497184,7402.059420,16284.530724,-73851.606007
158.499748,20873.807564,7994.224174,-68488.937521
158.502312,15840.407159,-4145.153275,-70021.128517
158.504877,-4885.359217,14952.160028,-73851.606007
158.507441,12435.459826,13471.748144,-69714.690318
158.510005,27239.578666,3256.906145,-64352.021832
158.512569,-3108.864956,-14359.995275,-77835.302597
158.515134,14508.036463,-740.205942,-68642.156621
158.517698,16728.654289,16580.613101,-69867.909418
158.520262,19097.313304,-148.041188,-65424.555529
158.522826,3849.070898,-12435.459826,-71859.757712
158.525391,4885.359217,7402.059420,-73391.948708
158.527955,10955.047942,14804.118840,-69867.909418
158.530519,18505.148550,5773.606348,-67263.184724
158.533085,3997.112087,23538.548956,-71706.538613
158.535652,7402.059420,-15692.365970,-74464.482406
158.538218,23390.507767,-16876.695478,-67263.184724
158.540784,8290.306550,7846.182985,-69408.252119
158.543350,3997.112087,-4145.153275,-67722.842023
158.545916,-2220.617826,-6661.853478,-75383.797003
