#time,accel_x,accel_y,accel_z
103.475099,2960.823768,7254.018232,-69255.033019
103.477727,6661.853478,5477.523971,-67569.622924
103.480355,8586.388927,-17172.777854,-68795.375720
103.482983,8586.388927,5477.523971,-68642.156621
103.485611,9918.759623,15248.242405,-65577.774629
103.488239,-1924.535449,2072.576638,-70787.224015
103.490868,1628.453072,-3997.112087,-69867.909418
103.493496,12731.542202,-1036.288319,-65118.117330
103.496124,9030.512492,2220.617826,-68182.499322
103.498752,-6069.688724,19837.519246,-72625.853210
103.501380,18949.272115,-740.205942,-62360.173537
103.504008,-1480.411884,-4737.318029,-73238.729609
103.506653,444.123565,4737.318029,-70021.128517
103.509298,11103.089130,4885.359217,-64352.021832
103.511943,1036.288319,20133.601622,-69255.033019
103.514589,-148.041188,5477.523971,-70480.785816
103.517234,8290.306550,2664.741391,-68335.718422
103.519879,5921.647536,14508.036463,-68795.375720
103.522524,13323.706956,2516.700203,-67109.965625
103.525169,2812.782580,-148.041188,-70327.566716
103.527815,2072.576638,17764.942608,-69561.471218
103.530460,-1628.453072,13175.665768,-68335.718422
103.533105,13767.830521,2516.700203,-65577.774629
103.535750,3997.112087,1480.411884,-69561.471218
103.538395,-1036.288319,19097.313304,-70480.785816
103.541041,1184.329507,16728.654289,-69255.033019
103.543686,9030.512492,-3404.947333,-67569.622924
103.546331,14508.036463,2516.700203,-66497.089226
103.548976,296.082377,3256.906145,-69714.690318
103.551621,2664.741391,5625.565159,-67722.842023
103.554267,6513.812290,2220.617826,-68488.937521
103.556912,6513.812290,22650.301825,-68029.280222
103.559557,-6661.853478,5773.606348,-71859.757712
103.562202,12435.459826,14359.995275,-65730.993728
103.564847,20725.766376,2960.823768,-63892.364533
103.567493,2368.659014,6069.688724,-70327.566716
103.570138,-5773.606348,23242.466579,-70787.224015
103.572783,11547.212695,10658.965565,-65577.774629
103.575428,9770.718434,-10807.006753,-68335.718422
103.578073,-1184.329507,13915.871710,-71246.881314
103.580719,5329.482782,18209.066173,-67109.965625
103.583364,8438.347739,10955.047942,-68029.280222
103.586009,3256.906145,2960.823768,-70327.566716
103.588654,12287.418637,3108.864956,-68948.594820
103.591299,9770.718434,4293.194464,-67416.403824
103.593944,-5033.400406,12879.583391,-67722.842023
103.596590,3108.864956,13767.830521,-68335.718422
103.599235,10510.924376,-7105.977043,-69408.252119
103.601880,4145.153275,3552.988522,-68948.594820
103.604525,-3997.112087,7698.141797,-70021.128517
103.607170,12583.501014,1924.535449,-66956.746525
103.609816,11695.253884,17172.777854,-66037.431928
103.612468,-4145.153275,-6069.688724,-71706.538613
103.615121,2516.700203,592.164754,-68488.937521
103.617774,14211.954086,3108.864956,-69255.033019
103.620426,19541.436869,1184.329507,-64811.679131
103.623079,-3849.070898,7994.224174,-72319.415011
103.625732,2516.700203,8142.265362,-68488.937521
103.628384,13323.706956,5773.606348,-66650.308326
103.631037,1036.288319,1332.370696,-70940.443115
103.633690,5773.606348,13471.748144,-68335.718422
103.636343,6069.688724,1184.329507,-69561.471218
103.638995,4293.194464,14211.954086,-66343.870127
103.641648,3552.988522,7402.059420,-68642.156621
103.644301,148.041188,19689.478057,-70480.785816
103.646953,-2960.823768,27683.702231,-70174.347617
103.649606,4885.359217,1480.411884,-70174.347617
103.652259,7698.141797,444.123565,-68642.156621
103.654911,-2368.659014,4441.235652,-71093.662214
103.657564,11103.089130,1184.329507,-65730.993728
103.660217,10658.965565,-2072.576638,-68642.156621
103.662869,-3256.906145,-444.123565,-72932.291410
103.665522,3552.988522,2368.659014,-68948.594820
103.668175,8438.347739,5625.565159,-66650.308326
103.670828,2072.576638,4441.235652,-68029.280222
103.673480,14656.077652,11103.089130,-67876.061123
103.676133,11991.336260,0.000000,-67263.184724
103.678786,-296.082377,2220.617826,-70787.224015
103.681438,592.164754,9326.594869,-69561.471218
103.684091,11695.253884,-1776.494261,-68335.718422
103.686744,3997.112087,-6957.935855,-70787.224015
103.689396,3701.029710,4885.359217,-66497.089226
103.692049,2072.576638,18505.148550,-67109.965625
103.694702,-2516.700203,-1332.370696,-70327.566716
103.697354,13471.748144,-4441.235652,-67263.184724
103.700007,14063.912898,9474.636058,-66803.527426
103.702660,148.041188,14656.077652,-67416.403824
103.705312,-2516.700203,5477.523971,-69714.690318
103.707965,15248.242405,10955.047942,-68335.718422
103.710618,8734.430116,13175.665768,-67876.061123
103.713271,-3552.988522,3108.864956,-71246.881314
103.715923,7254.018232,7105.977043,-66037.431928
103.718575,8586.388927,9178.553681,-66803.527426
103.721226,592.164754,10510.924376,-70021.128517
103.723877,3108.864956,11843.295072,-68642.156621
103.726529,13619.789333,12879.583391,-66497.089226
103.729180,-740.205942,14359.995275,-71246.881314
103.731831,-1480.411884,1480.411884,-68029.280222
103.734483,17616.901420,2516.700203,-63432.707234
103.737134,-1036.288319,23390.507767,-70327.566716
103.739785,-296.082377,13027.624579,-68948.594820
103.742437,5921.647536,-2368.659014,-68642.156621
103.745088,12287.418637,3108.864956,-66037.431928
103.747739,10214.842000,27831.743419,-67876.061123
103.750391,-3552.988522,7846.182985,-72012.976812
103.753042,2072.576638,-3849.070898,-68642.156621
103.755693,7698.141797,10214.842000,-69101.813920
103.758345,6809.894666,-5625.565159,-67569.622924
103.760996,12435.459826,-740.205942,-65424.555529
103.763647,592.164754,13471.748144,-71400.100414
103.766299,-1776.494261,7698.141797,-70174.347617
103.768950,11695.253884,12287.418637,-64505.240932
103.771601,8290.306550,-1184.329507,-66803.527426
103.774253,5477.523971,27387.619854,-66190.651027
103.776904,3849.070898,7846.182985,-67569.622924
103.779555,1924.535449,888.247130,-68488.937521
103.782207,2516.700203,13915.871710,-69561.471218
103.784858,9918.759623,5921.647536,-66956.746525
103.787509,7698.141797,-5181.441594,-68488.937521
103.790161,13471.748144,20725.766376,-68948.594820
103.792812,-2368.659014,11843.295072,-70174.347617
103.795463,-5921.647536,-3256.906145,-68488.937521
103.798115,12583.501014,8734.430116,-65884.212828
103.800766,3108.864956,-5181.441594,-72932.291410
103.803417,2960.823768,15100.201217,-68488.937521
103.806069,6809.894666,6809.894666,-67416.403824
103.808720,10066.800811,-2812.782580,-68488.937521
103.811371,2368.659014,-4885.359217,-70787.224015
103.814023,8438.347739,11399.171507,-66803.527426
103.816674,4589.276840,5625.565159,-69561.471218
103.819325,-6069.688724,-6069.688724,-72012.976812
103.821977,19689.478057,4293.194464,-65118.117330
103.824625,296.082377,1332.370696,-71706.538613
103.827273,-148.041188,444.123565,-69101.813920
103.829920,3552.988522,2516.700203,-70634.004916
103.832568,9918.759623,-17468.860231,-68335.718422
103.835216,17172.777854,4441.235652,-66956.746525
103.837864,8882.471304,9326.594869,-67722.842023
103.840512,-3997.112087,-2664.741391,-70940.443115
103.843160,7846.182985,-5033.400406,-66956.746525
103.845808,7994.224174,28719.990550,-68182.499322
103.848456,-1924.535449,3108.864956,-70021.128517
103.851104,4145.153275,-3701.029710,-70940.443115
103.853752,7254.018232,6661.853478,-69714.690318
103.856400,9326.594869,9326.594869,-67722.842023
103.859048,1036.288319,10955.047942,-70327.566716
103.861696,296.082377,-13471.748144,-70940.443115
103.864344,10510.924376,-1036.288319,-70940.443115
103.866992,7550.100608,13471.748144,-66803.527426
103.869640,14656.077652,7698.141797,-65577.774629
103.872288,-3701.029710,0.000000,-72932.291410
103.874936,3849.070898,4737.318029,-69408.252119
103.877584,13027.624579,6069.688724,-65730.993728
103.880232,-296.082377,-5921.647536,-70787.224015
103.882879,12731.542202,-5921.647536,-68488.937521
103.885527,12287.418637,24130.713709,-64964.898230
103.888175,-13619.789333,5921.647536,-70634.004916
103.890823,-5033.400406,-2516.700203,-71246.881314
103.893471,16876.695478,11103.089130,-66497.089226
103.896119,6809.894666,-5477.523971,-70787.224015
103.898767,4589.276840,24278.754898,-67569.622924
103.901415,-2220.617826,19541.436869,-68642.156621
103.904063,7994.224174,-21317.931130,-69714.690318
103.906711,13915.871710,8290.306550,-68948.594820
103.909359,1628.453072,25018.960840,-70174.347617
103.912007,-4293.194464,14508.036463,-69255.033019
103.914655,7846.182985,2516.700203,-66037.431928
103.917303,2220.617826,7698.141797,-69714.690318
103.919951,5773.606348,6365.771101,-68182.499322
103.922599,2368.659014,11103.089130,-68795.375720
103.925247,12139.377449,13767.830521,-69101.813920
103.927895,9918.759623,19837.519246,-66650.308326
103.930436,-3404.947333,9178.553681,-68488.937521
103.932976,9474.636058,7402.059420,-67569.622924
103.935517,10362.883188,14359.995275,-66037.431928
103.938058,-592.164754,9326.594869,-69101.813920
103.940599,-5921.647536,9918.759623,-72166.195912
103.943140,23094.425390,-2220.617826,-64045.583633
103.945681,6069.688724,10362.883188,-68182.499322
103.948221,1036.288319,3552.988522,-69255.033019
103.950762,10658.965565,-1184.329507,-66190.651027
103.953303,10066.800811,28868.031738,-65577.774629
103.955844,2960.823768,10658.965565,-66343.870127
103.958385,1628.453072,2812.782580,-71246.881314
103.960926,2072.576638,6957.935855,-71246.881314
103.963466,12583.501014,7994.224174,-64658.460031
103.966007,9770.718434,21021.848753,-66956.746525
103.968548,-1036.288319,-444.123565,-71246.881314
103.971089,-1184.329507,-8586.388927,-70940.443115
103.973630,6069.688724,19097.313304,-68795.375720
103.976171,7698.141797,19689.478057,-66497.089226
103.978712,2368.659014,-9178.553681,-69714.690318
103.981252,13027.624579,7846.182985,-69101.813920
103.983793,8734.430116,14063.912898,-67722.842023
103.986334,-7994.224174,3552.988522,-70327.566716
103.988875,5625.565159,18061.024985,-66956.746525
103.991416,8290.306550,0.000000,-68335.718422
103.993957,4293.194464,3552.988522,-69867.909418
103.996497,1776.494261,6069.688724,-68335.718422
103.999038,4885.359217,22650.301825,-67722.842023
104.001579,5921.647536,7994.224174,-67722.842023
104.004120,9474.636058,-17172.777854,-68335.718422
104.006661,-4737.318029,5921.647536,-71706.538613
104.009202,18209.066173,7994.224174,-62819.830836
104.011743,2516.700203,148.041188,-70480.785816
104.014283,-3997.112087,7698.141797,-72625.853210
104.016824,14359.995275,3849.070898,-64045.583633
104.019365,7994.224174,-2812.782580,-67722.842023
104.021906,-592.164754,-3701.029710,-71553.319513
104.024447,-2664.741391,1036.288319,-72166.195912
104.026988,10066.800811,11991.336260,-65424.555529
104.029528,9178.553681,-7994.224174,-68182.499322
104.032092,-3997.112087,6661.853478,-70021.128517
104.034657,7550.100608,21021.848753,-65730.993728
104.037223,14211.954086,18949.272115,-66343.870127
104.039788,-4145.153275,-10510.924376,-73085.510509
104.042353,444.123565,-1480.411884,-70480.785816
104.044918,10066.800811,28127.825796,-67109.965625
104.047483,-592.164754,-10955.047942,-71706.538613
104.050049,8586.388927,-15988.448347,-71246.881314
104.052614,10362.883188,17024.736666,-65424.555529
104.055179,8734.430116,7994.224174,-67569.622924
104.057744,-1332.370696,-7698.141797,-72779.072310
104.060310,8586.388927,6513.812290,-67109.965625
104.062875,13767.830521,2960.823768,-66343.870127
104.065440,-7105.977043,2072.576638,-73545.167808
104.068005,13323.706956,3108.864956,-65730.993728
104.070570,7402.059420,1776.494261,-68948.594820
104.073136,-11547.212695,9030.512492,-71706.538613
104.075701,3108.864956,444.123565,-67263.184724
104.078266,16432.571912,7402.059420,-68029.280222
104.080831,-888.247130,8586.388927,-72012.976812
104.083396,5477.523971,23094.425390,-67263.184724
104.085962,888.247130,11399.171507,-67876.061123
104.088527,2812.782580,-10955.047942,-71246.881314
104.091092,14804.118840,9474.636058,-69867.909418
104.093657,2516.700203,26943.496289,-69101.813920
104.096223,-2368.659014,16728.654289,-66650.308326
104.098788,3404.947333,4441.235652,-68488.937521
104.101353,6217.729913,5329.482782,-69255.033019
104.103918,3849.070898,-2664.741391,-67876.061123
104.106483,8290.306550,11399.171507,-67876.061123
104.109049,13027.624579,14063.912898,-68642.156621
104.111614,-148.041188,10807.006753,-70480.785816
104.114179,-444.123565,7698.141797,-67876.061123
104.116744,15248.242405,12583.501014,-65118.117330
104.119309,2664.741391,4441.235652,-71553.319513
104.121875,-6661.853478,12287.418637,-69867.909418
104.124440,3997.112087,28719.990550,-67569.622924
104.127005,15840.407159,2220.617826,-67569.622924
104.129570,11251.130318,10807.006753,-65118.117330
104.132136,-4145.153275,-6661.853478,-72932.291410
104.134718,9178.553681,-10955.047942,-68182.499322
104.137300,13027.624579,22946.384202,-64505.240932
104.139882,-4441.235652,22650.301825,-70787.224015
104.142464,2220.617826,-7994.224174,-71400.100414
104.145046,12583.501014,9622.677246,-67722.842023
104.147629,3108.864956,-5329.482782,-68795.375720
104.150211,-2368.659014,21910.095883,-69101.813920
104.152793,11991.336260,20429.683999,-66803.527426
104.155375,8438.347739,12879.583391,-68488.937521
104.157957,-444.123565,15988.448347,-68948.594820
104.160539,9030.512492,-5181.441594,-68488.937521
104.163122,19689.478057,2812.782580,-67876.061123
104.165704,-3701.029710,27239.578666,-68948.594820
104.168286,-2664.741391,5181.441594,-68795.375720
104.170868,10658.965565,7105.977043,-67569.622924
104.173450,9770.718434,-7105.977043,-70174.347617
104.176032,-2664.741391,2812.782580,-70327.566716
104.178615,740.205942,17024.736666,-67416.403824
104.181197,18653.189738,-9178.553681,-65577.774629
104.183779,-1628.453072,-12879.583391,-72625.853210
104.186361,6809.894666,9918.759623,-67109.965625
104.188943,10510.924376,5773.606348,-66497.089226
104.191526,-5033.400406,1480.411884,-71859.757712
104.194108,11991.336260,5477.523971,-67109.965625
104.196690,1924.535449,-444.123565,-70787.224015
104.199272,4885.359217,6069.688724,-67569.622924
104.201854,6661.853478,-296.082377,-68642.156621
104.204436,5625.565159,-2812.782580,-70787.224015
104.207019,5773.606348,-3108.864956,-69714.690318
104.209601,9474.636058,6217.729913,-67263.184724
104.212183,0.000000,6957.935855,-70021.128517
104.214765,1184.329507,-14952.160028,-68642.156621
104.217347,12435.459826,-10362.883188,-67109.965625
104.219929,4441.235652,21317.931130,-69101.813920
104.222512,6809.894666,4441.235652,-66497.089226
104.225094,-4589.276840,4441.235652,-72166.195912
104.227676,10510.924376,15100.201217,-66037.431928
104.230258,7994.224174,-6661.853478,-65730.993728
104.232840,1924.535449,1036.288319,-69408.252119
104.235422,3108.864956,9474.636058,-68182.499322
104.238016,2664.741391,5625.565159,-69714.690318
104.240609,13323.706956,3108.864956,-67109.965625
104.243203,1332.370696,3997.112087,-70940.443115
104.245796,4293.194464,-444.123565,-70634.004916
104.248389,5921.647536,-4145.153275,-69561.471218
104.250983,7402.059420,3997.112087,-64811.679131
104.253576,0.000000,14211.954086,-67722.842023
104.256169,888.247130,8586.388927,-70174.347617
104.258763,4145.153275,-2072.576638,-69714.690318
104.261356,9030.512492,-1184.329507,-70787.224015
104.263949,9770.718434,22946.384202,-64658.460031
104.266543,3108.864956,4589.276840,-67876.061123
104.269136,5477.523971,2812.782580,-70634.004916
104.271729,18357.107362,5181.441594,-66803.527426
104.274323,8438.347739,296.082377,-67722.842023
104.276916,-9770.718434,15544.324782,-69255.033019
104.279509,12287.418637,25907.207970,-64505.240932
104.282103,1776.494261,5477.523971,-70174.347617
104.284696,1036.288319,-4293.194464,-68795.375720
104.287289,13915.871710,13027.624579,-65424.555529
104.289883,11695.253884,7550.100608,-68948.594820
104.292476,7994.224174,6217.729913,-66803.527426
104.295069,-7846.182985,8882.471304,-70634.004916
104.297663,10658.965565,27683.702231,-66190.651027
104.300256,7550.100608,20725.766376,-67569.622924
104.302849,-8142.265362,10214.842000,-71093.662214
104.305443,11547.212695,6661.853478,-66956.746525
104.308036,12435.459826,-6069.688724,-68029.280222
104.310629,2072.576638,8734.430116,-71093.662214
104.313223,5773.606348,-8882.471304,-69867.909418
104.315816,6365.771101,-2664.741391,-68029.280222
104.318409,7846.182985,35233.802839,-67569.622924
104.321008,-1776.494261,-1924.535449,-72012.976812
104.323607,592.164754,8734.430116,-70021.128517
104.326206,9030.512492,10214.842000,-65271.336430
104.328805,8290.306550,-1924.535449,-67876.061123
104.331403,2516.700203,17468.860231,-70787.224015
104.334002,3849.070898,17764.942608,-68029.280222
104.336601,5329.482782,13619.789333,-67569.622924
104.339200,3404.947333,14359.995275,-71093.662214
104.341798,4589.276840,7402.059420,-68488.937521
104.344397,3404.947333,1036.288319,-66037.431928
104.346996,2072.576638,9622.677246,-69255.033019
104.349595,3404.947333,10658.965565,-70174.347617
104.352193,11251.130318,-1184.329507,-66497.089226
104.354792,8142.265362,-12731.542202,-67569.622924
104.357391,5625.565159,8734.430116,-67569.622924
104.359990,0.000000,740.205942,-71706.538613
104.362588,2664.741391,296.082377,-68948.594820
104.365187,17468.860231,14211.954086,-63585.926334
104.367786,-4145.153275,-15692.365970,-73545.167808
104.370385,-9770.718434,-7402.059420,-74004.825107
104.372983,12583.501014,148.041188,-66190.651027
104.375582,8734.430116,1480.411884,-67722.842023
104.378181,1184.329507,4293.194464,-70480.785816
104.380780,3552.988522,-5921.647536,-69255.033019
104.383378,9474.636058,11695.253884,-68182.499322
104.385977,6513.812290,19097.313304,-66650.308326
104.388576,-8438.347739,148.041188,-73238.729609
104.391175,14063.912898,-10807.006753,-66190.651027
104.393773,7994.224174,-2220.617826,-66497.089226
104.396372,1776.494261,-296.082377,-70021.128517
104.398971,9326.594869,-15248.242405,-68029.280222
104.401570,7698.141797,27239.578666,-67722.842023
104.404168,-3997.112087,25018.960840,-70940.443115
104.406767,6957.935855,-31680.814318,-68642.156621
104.409366,8586.388927,3849.070898,-67569.622924
104.411965,8882.471304,6809.894666,-67876.061123
104.414563,148.041188,-1924.535449,-71093.662214
104.417162,3552.988522,8586.388927,-70021.128517
104.419761,10362.883188,9622.677246,-66343.870127
104.422360,2812.782580,-2664.741391,-70634.004916
104.424961,-2516.700203,-12287.418637,-71706.538613
104.427563,444.123565,5181.441594,-67722.842023
104.430164,17320.819043,1628.453072,-63126.269035
104.432766,2368.659014,-14508.036463,-70480.785816
104.435368,4589.276840,3552.988522,-72625.853210
104.437969,3404.947333,34345.555709,-66956.746525
104.440571,3108.864956,1184.329507,-65884.212828
104.443172,3404.947333,-5181.441594,-69867.909418
104.445774,17468.860231,9770.718434,-68795.375720
104.448375,12731.542202,22058.137072,-67263.184724
104.450977,-8586.388927,27387.619854,-68335.718422
104.453579,1776.494261,10066.800811,-68182.499322
104.456180,4145.153275,9030.512492,-68948.594820
104.458782,8734.430116,6069.688724,-65577.774629
104.461383,0.000000,11991.336260,-70327.566716
104.463985,10214.842000,14804.118840,-69255.033019
104.466586,10066.800811,4441.235652,-68948.594820
104.469188,740.205942,3256.906145,-69255.033019
104.471789,3404.947333,14063.912898,-66803.527426
104.474391,7105.977043,15544.324782,-70021.128517
104.476993,-1036.288319,39971.120868,-68335.718422
104.479594,-444.123565,10510.924376,-68795.375720
104.482196,9770.718434,-7402.059420,-70021.128517
104.484797,13175.665768,12435.459826,-66956.746525
104.487399,4441.235652,-6069.688724,-68488.937521
104.490000,-444.123565,9918.759623,-69101.813920
104.492602,10066.800811,32865.143825,-67263.184724
104.495204,1480.411884,148.041188,-70327.566716
104.497805,-296.082377,5921.647536,-67416.403824
104.500407,9770.718434,14508.036463,-65424.555529
104.503008,-444.123565,5329.482782,-71246.881314
104.505610,2664.741391,9474.636058,-67876.061123
104.508211,10807.006753,23242.466579,-65730.993728
104.510813,5625.565159,9030.512492,-70787.224015
104.513415,7254.018232,10658.965565,-70480.785816
104.516016,-7254.018232,16728.654289,-68488.937521
104.518618,12435.459826,-592.164754,-64045.583633
104.521219,888.247130,4737.318029,-70634.004916
104.523821,5625.565159,-4589.276840,-70787.224015
104.526422,4737.318029,16284.530724,-68029.280222
104.529025,2960.823768,9030.512492,-69255.033019
104.531628,8290.306550,4589.276840,-68488.937521
104.534231,-1480.411884,-2072.576638,-71246.881314
104.536834,8586.388927,-740.205942,-67109.965625
104.539437,8882.471304,5181.441594,-66803.527426
104.542040,5329.482782,4293.194464,-67876.061123
104.544643,888.247130,7550.100608,-70480.785816
104.547246,1036.288319,4441.235652,-70174.347617
104.549850,11695.253884,-592.164754,-65424.555529
104.552453,1332.370696,-2960.823768,-70021.128517
104.555056,10066.800811,1184.329507,-68642.156621
104.557659,9178.553681,14211.954086,-67722.842023
104.560262,-2516.700203,4589.276840,-71400.100414
104.562865,1332.370696,9622.677246,-68795.375720
104.565468,7698.141797,8734.430116,-67722.842023
104.568071,5625.565159,-3552.988522,-68182.499322
104.570674,6661.853478,6365.771101,-66650.308326
104.573277,8142.265362,30200.402434,-68488.937521
104.575880,444.123565,-5625.565159,-71859.757712
104.578483,5773.606348,-19245.354492,-67722.842023
104.581086,5921.647536,14508.036463,-67109.965625
104.583689,6661.853478,5921.647536,-68948.594820
104.586292,5477.523971,7846.182985,-69255.033019
104.588895,-2072.576638,15100.201217,-70480.785816
104.591498,17912.983796,2812.782580,-65271.336430
104.594101,3552.988522,-5329.482782,-70021.128517
104.596704,-3256.906145,1480.411884,-68488.937521
104.599307,5033.400406,-1184.329507,-66650.308326
104.601910,3552.988522,888.247130,-69867.909418
104.604513,15988.448347,444.123565,-66803.527426
104.607116,-5921.647536,13323.706956,-74464.482406
104.609719,5329.482782,19985.560434,-65118.117330
104.612322,16580.613101,-1332.370696,-61594.078039
104.614925,10214.842000,-6809.894666,-69408.252119
104.617528,15100.201217,5329.482782,-69408.252119
104.620131,2516.700203,13619.789333,-68948.594820
104.622734,-8438.347739,25759.166782,-68642.156621
104.625337,9918.759623,16136.489536,-66803.527426
104.627940,3404.947333,-1628.453072,-69561.471218
104.630543,4145.153275,4737.318029,-67263.184724
104.633144,7402.059420,18357.107362,-67722.842023
104.635745,12435.459826,10955.047942,-70021.128517
104.638347,-4589.276840,10066.800811,-70327.566716
104.640948,5625.565159,3108.864956,-66650.308326
104.643549,12139.377449,8882.471304,-66037.431928
104.646150,-3256.906145,7846.182985,-72319.415011
104.648752,-444.123565,18209.066173,-67416.403824
104.651353,14656.077652,0.000000,-67722.842023
104.653954,2960.823768,8290.306550,-70787.224015
104.656555,4737.318029,29460.196492,-66956.746525
104.659157,4145.153275,6365.771101,-67876.061123
104.661758,3552.988522,3108.864956,-69714.690318
104.664359,10362.883188,5921.647536,-67416.403824
104.666960,1628.453072,4293.194464,-67876.061123
104.669562,5033.400406,13915.871710,-67263.184724
104.672163,9030.512492,7994.224174,-68795.375720
104.674764,-1628.453072,18653.189738,-68642.156621
104.677365,9474.636058,1332.370696,-66190.651027
104.679967,9918.759623,11843.295072,-69561.471218
104.682568,3997.112087,14359.995275,-69408.252119
104.685169,740.205942,1628.453072,-65118.117330
104.687770,2368.659014,14952.160028,-66956.746525
104.690372,5921.647536,14063.912898,-68948.594820
104.692973,11399.171507,-5773.606348,-69714.690318
104.695574,3701.029710,6217.729913,-69101.813920
104.698175,12879.583391,8586.388927,-65730.993728
104.700777,444.123565,-3997.112087,-70327.566716
104.703378,-3108.864956,1628.453072,-70021.128517
104.705979,17320.819043,8142.265362,-64352.021832
104.708580,2368.659014,-6809.894666,-71093.662214
104.711182,-4885.359217,1480.411884,-72012.976812
104.713783,15988.448347,2664.741391,-65271.336430
104.716384,4737.318029,-444.123565,-70174.347617
104.718985,3108.864956,11991.336260,-68335.718422
104.721587,1036.288319,-740.205942,-69255.033019
104.724188,8586.388927,-1924.535449,-70634.004916
104.726789,9770.718434,13471.748144,-68029.280222
104.729390,-444.123565,25611.125593,-68182.499322
104.731992,1184.329507,-2960.823768,-69561.471218
104.734593,7105.977043,-13471.748144,-68182.499322
104.737192,6217.729913,7698.141797,-68488.937521
104.739792,8142.265362,11103.089130,-66803.527426
104.742391,3701.029710,-8734.430116,-70174.347617
104.744990,3701.029710,1036.288319,-69255.033019
104.747589,8142.265362,1480.411884,-67722.842023
104.750189,10510.924376,2072.576638,-67263.184724
104.752788,1480.411884,740.205942,-72012.976812
104.755387,3849.070898,6069.688724,-68948.594820
104.757987,7550.100608,3404.947333,-68335.718422
104.760586,8734.430116,-3997.112087,-69101.813920
104.763185,-4441.235652,-1036.288319,-69101.813920
104.765784,10510.924376,9622.677246,-64658.460031
104.768384,888.247130,592.164754,-70174.347617
104.770983,7550.100608,-4589.276840,-69101.813920
104.773582,6365.771101,14656.077652,-68795.375720
104.776182,-2664.741391,20133.601622,-67569.622924
104.778781,7402.059420,-5773.606348,-67263.184724
104.781380,5921.647536,25018.960840,-71859.757712
104.783979,8734.430116,14656.077652,-67416.403824
104.786579,11251.130318,-10362.883188,-67569.622924
104.789178,-12731.542202,14656.077652,-72319.415011
104.791777,13471.748144,19689.478057,-64658.460031
104.794377,5625.565159,8290.306550,-67876.061123
104.796976,-1776.494261,5921.647536,-71400.100414
104.799575,11843.295072,6809.894666,-68029.280222
104.802174,3108.864956,-9474.636058,-73851.606007
104.804774,8734.430116,19245.354492,-66037.431928
104.807373,4145.153275,10362.883188,-67416.403824
104.809972,1628.453072,-4737.318029,-70634.004916
104.812572,6513.812290,33013.185013,-66343.870127
104.815171,592.164754,18061.024985,-67109.965625
104.817770,9474.636058,-9622.677246,-68029.280222
104.820369,11547.212695,-3701.029710,-69101.813920
104.822969,-296.082377,27091.537477,-69408.252119
104.825568,-2960.823768,21317.931130,-69255.033019
104.828167,12731.542202,6661.853478,-65118.117330
104.830767,5181.441594,2812.782580,-69408.252119
104.833366,-3108.864956,9622.677246,-68182.499322
104.835965,9178.553681,16728.654289,-65730.993728
104.838564,8290.306550,12287.418637,-68182.499322
104.841162,888.247130,5033.400406,-68488.937521
104.843760,12139.377449,9326.594869,-66343.870127
104.846358,13027.624579,3849.070898,-69255.033019
104.848956,-9474.636058,14359.995275,-71093.662214
104.851554,6513.812290,28423.908173,-64658.460031
104.854152,14063.912898,296.082377,-66803.527426
104.856749,4737.318029,-10510.924376,-71859.757712
104.859347,6069.688724,5477.523971,-68335.718422
104.861945,0.000000,8586.388927,-70174.347617
104.864543,4145.153275,3108.864956,-69867.909418
104.867141,9474.636058,-11695.253884,-68335.718422
104.869739,2960.823768,6957.935855,-68182.499322
104.872337,3404.947333,5181.441594,-69714.690318
104.874934,-888.247130,-1480.411884,-71400.100414
104.877532,13619.789333,592.164754,-66343.870127
104.880130,444.123565,6365.771101,-69867.909418
104.882728,-1184.329507,-888.247130,-71400.100414
104.885326,10658.965565,6957.935855,-67569.622924
104.887924,5625.565159,2516.700203,-69561.471218
104.890522,3404.947333,13915.871710,-68642.156621
104.893119,-888.247130,8586.388927,-69255.033019
104.895717,12583.501014,11399.171507,-65884.212828
104.898315,4441.235652,5773.606348,-67263.184724
104.900913,1036.288319,-3404.947333,-68182.499322
104.903511,9474.636058,-19985.560434,-71246.881314
104.906109,7994.224174,5329.482782,-70787.224015
104.908706,2072.576638,19837.519246,-66956.746525
104.911304,9918.759623,-740.205942,-66037.431928
104.913902,3701.029710,-1036.288319,-71553.319513
104.916500,2368.659014,5181.441594,-69867.909418
104.919098,9474.636058,-740.205942,-66803.527426
104.921696,5773.606348,-7550.100608,-70021.128517
104.924294,5033.400406,9178.553681,-66343.870127
104.926891,6661.853478,12583.501014,-65118.117330
104.929489,-4441.235652,-9622.677246,-71859.757712
104.932087,7254.018232,10510.924376,-69408.252119
104.934685,7254.018232,26351.331535,-67109.965625
104.937283,-3849.070898,11103.089130,-66956.746525
104.939881,5033.400406,-3849.070898,-67569.622924
104.942479,12583.501014,15544.324782,-68182.499322
104.945073,18801.230927,-4885.359217,-67109.965625
104.947668,-1628.453072,4145.153275,-71246.881314
104.950263,-6513.812290,33457.308578,-68948.594820
104.952858,10807.006753,23094.425390,-64811.679131
104.955453,3997.112087,1036.288319,-68029.280222
104.958047,2664.741391,-2072.576638,-68795.375720
104.960642,6809.894666,12287.418637,-69101.813920
104.963237,5477.523971,1628.453072,-69561.471218
104.965832,6809.894666,12583.501014,-68948.594820
104.968427,6957.935855,23538.548956,-66343.870127
104.971022,740.205942,24574.837274,-68948.594820
104.973616,-2220.617826,3849.070898,-71093.662214
104.976211,3849.070898,-6217.729913,-67876.061123
104.978806,12139.377449,7254.018232,-66343.870127
104.981401,8882.471304,18653.189738,-68488.937521
104.983996,-4885.359217,26647.413912,-69408.252119
104.986590,4293.194464,29756.278868,-69714.690318
104.989185,11399.171507,1628.453072,-68335.718422
104.991780,1184.329507,888.247130,-69867.909418
104.994375,6957.935855,4441.235652,-66803.527426
104.996970,4441.235652,19393.395680,-68182.499322
104.999565,6069.688724,10362.883188,-67876.061123
105.002159,8586.388927,7402.059420,-68948.594820
105.004754,11547.212695,11695.253884,-70174.347617
105.007349,-10214.842000,11695.253884,-70787.224015
105.009944,12139.377449,6661.853478,-63739.145434
105.012539,8142.265362,17024.736666,-68335.718422
105.015134,-4885.359217,-15248.242405,-75230.577904
105.017728,11843.295072,296.082377,-67416.403824
105.020323,148.041188,22798.343014,-68642.156621
105.022918,5921.647536,-3256.906145,-68488.937521
105.025513,6513.812290,2072.576638,-67416.403824
105.028108,7105.977043,13323.706956,-67876.061123
105.030702,3108.864956,-11991.336260,-68335.718422
105.033297,6069.688724,3552.988522,-68642.156621
105.035892,9918.759623,3256.906145,-68029.280222
105.038487,-2516.700203,-2220.617826,-70940.443115
105.041082,9326.594869,9918.759623,-70174.347617
105.043677,9326.594869,6069.688724,-68029.280222
105.046271,5181.441594,10807.006753,-69255.033019
105.048805,4145.153275,-6513.812290,-69255.033019
105.051340,7698.141797,1628.453072,-69101.813920
105.053875,1480.411884,6217.729913,-67569.622924
105.056410,10955.047942,11991.336260,-65118.117330
105.058944,2072.576638,-444.123565,-70327.566716
105.061479,6661.853478,10066.800811,-67263.184724
105.064014,6957.935855,8142.265362,-67569.622924
105.066548,-1924.535449,3997.112087,-70480.785816
105.069083,3701.029710,9178.553681,-68795.375720
105.071618,9030.512492,3256.906145,-67416.403824
105.074153,12731.542202,-2960.823768,-67876.061123
105.076687,-1480.411884,11695.253884,-70634.004916
105.079222,1776.494261,6217.729913,-67416.403824
105.081757,10066.800811,4737.318029,-65271.336430
105.084291,-3256.906145,1628.453072,-70634.004916
105.086826,7105.977043,296.082377,-69255.033019
105.089361,14656.077652,0.000000,-66956.746525
105.091896,1924.535449,18653.189738,-69867.909418
105.094430,-4293.194464,14211.954086,-69561.471218
105.096965,3552.988522,5477.523971,-69867.909418
105.099500,14804.118840,18209.066173,-66956.746525
105.102034,12435.459826,3404.947333,-67876.061123
105.104569,-2960.823768,6365.771101,-68642.156621
105.107104,888.247130,11695.253884,-67569.622924
105.109638,10658.965565,18357.107362,-65271.336430
105.112173,444.123565,5921.647536,-69255.033019
105.114708,8586.388927,14804.118840,-67263.184724
105.117243,6957.935855,15544.324782,-69867.909418
105.119777,592.164754,-1924.535449,-72012.976812
105.122312,3552.988522,1184.329507,-67876.061123
105.124847,13767.830521,-4885.359217,-65271.336430
105.127381,2072.576638,8142.265362,-70327.566716
105.129916,-148.041188,25463.084405,-68335.718422
105.132451,7846.182985,10658.965565,-66497.089226
105.134986,6661.853478,-1776.494261,-68642.156621
105.137520,8142.265362,11251.130318,-67263.184724
105.140055,296.082377,19393.395680,-68795.375720
105.142590,7254.018232,11251.130318,-67876.061123
105.145124,8586.388927,3404.947333,-68029.280222
105.147659,740.205942,8142.265362,-68642.156621
105.150205,7698.141797,12435.459826,-66190.651027
105.152751,7550.100608,14211.954086,-67416.403824
105.155298,8882.471304,16728.654289,-69714.690318
105.157844,8290.306550,6957.935855,-68488.937521
105.160390,-9030.512492,10510.924376,-70787.224015
105.162936,5625.565159,23094.425390,-66343.870127
105.165482,16580.613101,7698.141797,-65884.212828
105.168029,-5773.606348,-9474.636058,-73085.510509
105.170575,15988.448347,-4737.318029,-69255.033019
105.173121,11103.089130,-4145.153275,-66956.746525
105.175667,-1184.329507,444.123565,-70634.004916
105.178213,4441.235652,-740.205942,-69255.033019
105.180759,9474.636058,10510.924376,-66956.746525
105.183306,6809.894666,1036.288319,-68182.499322
105.185852,-3701.029710,444.123565,-70940.443115
105.188398,14359.995275,2220.617826,-66190.651027
105.190944,1480.411884,444.123565,-70634.004916
105.193490,2220.617826,7698.141797,-68795.375720
105.196036,6513.812290,-2960.823768,-68488.937521
105.198583,13767.830521,11251.130318,-66190.651027
105.201129,5181.441594,2220.617826,-67876.061123
105.203675,2072.576638,2368.659014,-69408.252119
105.206221,5477.523971,-444.123565,-68335.718422
105.208767,1480.411884,5477.523971,-68182.499322
105.211313,2664.741391,17468.860231,-69255.033019
105.213860,7105.977043,-3552.988522,-69255.033019
105.216406,5329.482782,-17764.942608,-70021.128517
105.218952,3849.070898,10214.842000,-67876.061123
105.221498,9474.636058,2960.823768,-67569.622924
105.224044,2368.659014,3849.070898,-72779.072310
105.226591,-740.205942,2220.617826,-72166.195912
105.229137,10658.965565,6661.853478,-65577.774629
105.231683,-2664.741391,-3552.988522,-71246.881314
105.234229,1184.329507,592.164754,-68335.718422
105.236775,15988.448347,-10214.842000,-63739.145434
105.239321,5181.441594,-7846.182985,-71400.100414
105.241868,2220.617826,37454.420665,-69101.813920
105.244414,-1628.453072,8734.430116,-67569.622924
105.246960,3256.906145,-4145.153275,-66956.746525
105.249506,19393.395680,1776.494261,-67722.842023
105.252062,11251.130318,6957.935855,-69408.252119
105.254618,-12583.501014,18653.189738,-71246.881314
105.257173,11695.253884,12435.459826,-63739.145434
105.259729,5477.523971,8290.306550,-68948.594820
105.262285,3404.947333,7402.059420,-67722.842023
105.264841,1332.370696,9770.718434,-68948.594820
105.267396,6069.688724,14063.912898,-70940.443115
105.269952,15248.242405,12139.377449,-66037.431928
105.272508,888.247130,-296.082377,-70940.443115
105.275063,1332.370696,-3256.906145,-70634.004916
105.277619,2960.823768,15248.242405,-69255.033019
105.280175,3997.112087,13915.871710,-67569.622924
105.282731,3256.906145,23242.466579,-66956.746525
105.285286,5033.400406,19393.395680,-69561.471218
105.287842,2960.823768,-148.041188,-69714.690318
105.290398,5477.523971,6957.935855,-68182.499322
105.292954,8734.430116,-444.123565,-68488.937521
105.295509,7994.224174,24278.754898,-66650.308326
105.298065,148.041188,20281.642811,-68182.499322
105.300621,444.123565,-1332.370696,-69561.471218
105.303177,9918.759623,3997.112087,-68795.375720
105.305732,15692.365970,-7402.059420,-66650.308326
105.308288,4737.318029,7550.100608,-66343.870127
105.310844,4441.235652,13027.624579,-67263.184724
105.313400,-888.247130,22354.219448,-69101.813920
105.315955,7402.059420,-4145.153275,-69867.909418
105.318511,12139.377449,-2664.741391,-68488.937521
105.321067,-4737.318029,18505.148550,-71246.881314
105.323622,10214.842000,-2516.700203,-66956.746525
105.326178,6661.853478,-1036.288319,-68182.499322
105.328734,1776.494261,7698.141797,-69561.471218
105.331290,444.123565,-148.041188,-70480.785816
105.333845,3849.070898,6957.935855,-68182.499322
105.336401,3256.906145,1924.535449,-70021.128517
105.338957,5773.606348,3256.906145,-68795.375720
105.341513,4589.276840,-10807.006753,-70174.347617
105.344068,5033.400406,2960.823768,-68488.937521
105.346624,6957.935855,5329.482782,-68488.937521
105.349180,11251.130318,-2368.659014,-69867.909418
105.351736,-6365.771101,17172.777854,-70634.004916
105.354298,9770.718434,17172.777854,-65424.555529
105.356860,9918.759623,-14359.995275,-67416.403824
105.359422,4737.318029,17616.901420,-69561.471218
105.361984,2368.659014,19097.313304,-68948.594820
105.364546,-888.247130,-22798.343014,-71553.319513
105.367108,13619.789333,2960.823768,-66037.431928
105.369670,10066.800811,6365.771101,-66803.527426
105.372232,592.164754,2812.782580,-73238.729609
105.374794,7698.141797,10362.883188,-69561.471218
105.377356,3849.070898,1628.453072,-68182.499322
105.379918,-3108.864956,-3997.112087,-69408.252119
105.382480,1628.453072,-7550.100608,-70021.128517
105.385042,12879.583391,9326.594869,-66497.089226
105.387605,3256.906145,-888.247130,-69714.690318
105.390167,4145.153275,21465.972318,-69101.813920
105.392729,-2664.741391,21614.013506,-69561.471218
105.395291,3997.112087,-5773.606348,-68642.156621
105.397853,14804.118840,8734.430116,-69561.471218
105.400415,4293.194464,14804.118840,-69714.690318
105.402977,592.164754,7105.977043,-66956.746525
105.405539,3256.906145,9770.718434,-67876.061123
105.408101,8142.265362,17024.736666,-66803.527426
105.410663,4441.235652,9178.553681,-66956.746525
105.413225,-296.082377,16876.695478,-70327.566716
105.415787,10066.800811,17468.860231,-69408.252119
105.418349,5477.523971,11991.336260,-68642.156621
105.420911,2220.617826,-5033.400406,-68795.375720
105.423473,12731.542202,-12731.542202,-67416.403824
105.426035,5033.400406,16876.695478,-67722.842023
105.428598,8586.388927,17764.942608,-65730.993728
105.431160,-3701.029710,1776.494261,-70327.566716
105.433722,2072.576638,5181.441594,-69408.252119
105.436284,6957.935855,-4589.276840,-68182.499322
105.438846,14063.912898,9178.553681,-64658.460031
105.441408,5773.606348,12139.377449,-70174.347617
105.443970,-4441.235652,14063.912898,-70480.785816
105.446532,9770.718434,17024.736666,-65424.555529
105.449094,3701.029710,-3108.864956,-69867.909418
105.451656,4737.318029,13767.830521,-69408.252119
105.454218,8142.265362,18653.189738,-67722.842023
105.456785,592.164754,-1332.370696,-69255.033019
105.459351,2960.823768,15544.324782,-68488.937521
105.461918,5477.523971,2960.823768,-71093.662214
105.464484,5033.400406,444.123565,-68488.937521
105.467051,7402.059420,6365.771101,-67109.965625
105.469617,4589.276840,3256.906145,-69561.471218
105.472184,888.247130,-7550.100608,-70021.128517
105.474750,6365.771101,3552.988522,-67263.184724
105.477317,5921.647536,8882.471304,-69255.033019
105.479883,5773.606348,4441.235652,-68335.718422
105.482450,-444.123565,-4441.235652,-70787.224015
105.485016,12435.459826,-4293.194464,-66497.089226
105.487583,-1184.329507,-444.123565,-68948.594820
105.490149,-1776.494261,1776.494261,-71093.662214
105.492716,10510.924376,-1924.535449,-67569.622924
105.495282,9770.718434,17912.983796,-67876.061123
105.497849,-2072.576638,8586.388927,-70940.443115
105.500415,3552.988522,-2072.576638,-69101.813920
105.502982,10955.047942,-14063.912898,-66037.431928
105.505548,3701.029710,15988.448347,-69867.909418
105.508115,444.123565,19393.395680,-70021.128517
105.510681,4293.194464,-8438.347739,-69714.690318
105.513248,5921.647536,-2220.617826,-68795.375720
105.515814,11103.089130,-888.247130,-68795.375720
105.518381,3108.864956,-2072.576638,-71093.662214
105.520947,9030.512492,2516.700203,-68335.718422
105.523514,-1184.329507,10066.800811,-67569.622924
105.526080,6217.729913,3108.864956,-67263.184724
105.528647,7402.059420,-1036.288319,-69408.252119
105.531213,-1036.288319,1332.370696,-70634.004916
105.533780,10066.800811,1776.494261,-67876.061123
105.536346,9326.594869,26795.455100,-65424.555529
105.538913,-7402.059420,9622.677246,-70634.004916
105.541479,4293.194464,-3997.112087,-69101.813920
105.544046,28571.949361,6217.729913,-64811.679131
105.546612,-3849.070898,11991.336260,-71706.538613
105.549179,-5181.441594,21021.848753,-68182.499322
105.551745,5329.482782,16432.571912,-67569.622924
105.554312,6365.771101,296.082377,-68029.280222
105.556878,10658.965565,-1184.329507,-65424.555529
105.559449,-1776.494261,22354.219448,-70940.443115
105.562019,8142.265362,13767.830521,-69101.813920
105.564589,13767.830521,16728.654289,-66803.527426
105.567160,-1924.535449,33753.390955,-66650.308326
105.569730,0.000000,3552.988522,-70327.566716
105.572300,1628.453072,4885.359217,-68948.594820
105.574871,4441.235652,15544.324782,-68182.499322
105.577441,8586.388927,-11843.295072,-66650.308326
105.580011,9918.759623,22798.343014,-66497.089226
105.582582,0.000000,31236.690752,-70327.566716
105.585152,3849.070898,296.082377,-69561.471218
105.587722,5625.565159,8586.388927,-68335.718422
105.590293,8586.388927,9030.512492,-66956.746525
105.592863,2072.576638,2072.576638,-68795.375720
105.595433,4441.235652,3552.988522,-71400.100414
105.598004,13027.624579,21762.054695,-62973.049936
105.600574,3849.070898,296.082377,-67416.403824
105.603144,-3701.029710,22502.260637,-70787.224015
105.605715,8142.265362,17616.901420,-67876.061123
105.608285,16432.571912,-10510.924376,-67109.965625
105.610855,-2220.617826,4885.359217,-72012.976812
105.613426,7698.141797,7105.977043,-68182.499322
105.615996,1184.329507,888.247130,-68335.718422
105.618566,6217.729913,1628.453072,-67722.842023
105.621137,3849.070898,1480.411884,-68948.594820
105.623707,2516.700203,1332.370696,-71553.319513
105.626277,11547.212695,1036.288319,-67722.842023
105.628848,1332.370696,888.247130,-69867.909418
105.631418,-444.123565,-1776.494261,-70634.004916
105.633988,10807.006753,-1924.535449,-66803.527426
105.636559,9770.718434,-6069.688724,-68335.718422
105.639129,5329.482782,18357.107362,-69255.033019
105.641699,-888.247130,11547.212695,-69867.909418
105.644270,5329.482782,-7698.141797,-69255.033019
105.646840,3849.070898,-8142.265362,-68795.375720
105.649410,8882.471304,-8438.347739,-67263.184724
105.651981,7994.224174,3256.906145,-67416.403824
105.654551,7254.018232,5477.523971,-68948.594820
105.657121,-2072.576638,5181.441594,-70327.566716
105.659692,11695.253884,148.041188,-68795.375720
105.662265,10362.883188,2368.659014,-67876.061123
105.664839,2220.617826,-6661.853478,-70480.785816
105.667412,2368.659014,14656.077652,-67722.842023
105.669986,-148.041188,9770.718434,-69714.690318
105.672560,2664.741391,-10955.047942,-69101.813920
105.675133,11399.171507,1480.411884,-68335.718422
105.677707,12731.542202,33309.267390,-64658.460031
105.680280,-16728.654289,11547.212695,-71093.662214
105.682854,15100.201217,-8438.347739,-65884.212828
105.685428,8734.430116,23538.548956,-71553.319513
105.688001,10807.006753,20577.725188,-67876.061123
105.690575,8438.347739,-2220.617826,-64811.679131
105.693148,-5329.482782,5329.482782,-71246.881314
105.695722,7105.977043,21614.013506,-67416.403824
105.698296,3849.070898,12139.377449,-66497.089226
105.700869,1924.535449,14211.954086,-69561.471218
105.703443,12435.459826,12139.377449,-68488.937521
105.706016,7698.141797,15544.324782,-68948.594820
105.708590,-296.082377,27831.743419,-67876.061123
105.711163,3701.029710,5477.523971,-67569.622924
105.713737,6957.935855,-6217.729913,-68642.156621
105.716311,7550.100608,14656.077652,-66956.746525
105.718884,5773.606348,-3404.947333,-67263.184724
105.721458,-740.205942,12435.459826,-69101.813920
105.724031,7254.018232,26203.290347,-68488.937521
105.726605,8586.388927,7105.977043,-67722.842023
105.729179,-1480.411884,7846.182985,-71706.538613
105.731752,4885.359217,20429.683999,-66956.746525
105.734326,9178.553681,2960.823768,-67722.842023
105.736899,5773.606348,1924.535449,-70174.347617
105.739473,6365.771101,11843.295072,-66343.870127
105.742047,9622.677246,2220.617826,-66803.527426
105.744620,-6365.771101,14063.912898,-71553.319513
105.747194,10066.800811,16136.489536,-66190.651027
105.749767,14508.036463,6957.935855,-69255.033019
105.752341,-1184.329507,22650.301825,-69867.909418
105.754915,296.082377,-6365.771101,-68948.594820
105.757488,8882.471304,-5625.565159,-67416.403824
105.760062,7402.059420,-2368.659014,-69101.813920
105.762635,-444.123565,6365.771101,-69867.909418
105.765163,6069.688724,13915.871710,-68488.937521
105.767691,10510.924376,-6217.729913,-68795.375720
105.770219,740.205942,0.000000,-70174.347617
105.772746,-1480.411884,1184.329507,-69408.252119
105.775274,12139.377449,5181.441594,-66037.431928
105.777802,4589.276840,-10955.047942,-70634.004916
105.780330,6661.853478,-25167.002028,-70634.004916
105.782858,6957.935855,-4737.318029,-67876.061123
105.785385,5477.523971,18949.272115,-68488.937521
105.787913,6661.853478,592.164754,-68488.937521
105.790441,-6365.771101,-3997.112087,-72932.291410
105.792969,11695.253884,-4885.359217,-66037.431928
105.795496,9474.636058,-2960.823768,-67876.061123
105.798024,3849.070898,9030.512492,-70940.443115
105.800552,2516.700203,14063.912898,-68488.937521
105.803080,12287.418637,-10510.924376,-67263.184724
105.805608,-2960.823768,2220.617826,-70634.004916
105.808135,-296.082377,740.205942,-67722.842023
105.810663,18653.189738,-8142.265362,-64045.583633
105.813191,592.164754,9622.677246,-73238.729609
105.815719,444.123565,14063.912898,-70480.785816
105.818246,9326.594869,16284.530724,-62819.830836
105.820774,-2072.576638,2072.576638,-69101.813920
105.823302,11547.212695,-13915.871710,-68642.156621
105.825830,23094.425390,7550.100608,-68642.156621
105.828358,-5625.565159,26499.372724,-71093.662214
105.830885,-3256.906145,25018.960840,-67569.622924
105.833413,5773.606348,18801.230927,-68335.718422
105.835941,4293.194464,-296.082377,-67569.622924
105.838469,5921.647536,2220.617826,-66037.431928
105.840997,3256.906145,19837.519246,-70787.224015
105.843524,12139.377449,22058.137072,-67569.622924
105.846063,5033.400406,3256.906145,-68642.156621
105.848602,3108.864956,2812.782580,-68795.375720
105.851142,6957.935855,-1036.288319,-67416.403824
105.853681,9918.759623,12287.418637,-67416.403824
105.856220,-740.205942,17764.942608,-67569.622924
105.858759,148.041188,17912.983796,-68182.499322
105.861298,3849.070898,31976.896694,-68795.375720
105.863837,9474.636058,-4737.318029,-69101.813920
105.866376,5181.441594,592.164754,-68488.937521
105.868915,5921.647536,16728.654289,-67876.061123
105.871454,8290.306550,12879.583391,-68182.499322
105.873993,4737.318029,1924.535449,-70327.566716
105.876532,3108.864956,10510.924376,-68182.499322
105.879072,5181.441594,6365.771101,-65118.117330
105.881611,4441.235652,7846.182985,-68642.156621
105.884150,9326.594869,-16728.654289,-71706.538613
105.886689,6365.771101,8290.306550,-70480.785816
105.889228,4589.276840,15840.407159,-68182.499322
105.891767,5033.400406,-2812.782580,-67569.622924
105.894306,5477.523971,-3404.947333,-68948.594820
105.896845,-2812.782580,1480.411884,-70327.566716
105.899384,10066.800811,9622.677246,-65884.212828
105.901923,9918.759623,6217.729913,-68182.499322
105.904462,-1332.370696,740.205942,-71553.319513
105.907002,6661.853478,740.205942,-66190.651027
105.909541,6957.935855,4589.276840,-68335.718422
105.912080,5477.523971,-296.082377,-69867.909418
105.914619,5921.647536,16432.571912,-68182.499322
105.917158,-1332.370696,16432.571912,-70174.347617
105.919697,10807.006753,-6809.894666,-67876.061123
105.922236,6513.812290,-19541.436869,-69408.252119
105.924775,4737.318029,-148.041188,-68948.594820
105.927314,4885.359217,7698.141797,-68182.499322
105.929853,1036.288319,12583.501014,-69561.471218
105.932392,592.164754,-3256.906145,-72012.976812
105.934932,1628.453072,4885.359217,-71400.100414
105.937471,12287.418637,-14656.077652,-68642.156621
105.940010,2072.576638,-5329.482782,-69101.813920
105.942549,10214.842000,13915.871710,-63892.364533
105.945088,-4145.153275,5033.400406,-70634.004916
105.947637,6217.729913,8142.265362,-68335.718422
105.950186,14063.912898,-9326.594869,-65884.212828
105.952735,-740.205942,22354.219448,-68642.156621
105.955284,-1480.411884,27979.784608,-65730.993728
105.957832,444.123565,-3849.070898,-70480.785816
105.960381,17616.901420,12879.583391,-67569.622924
105.962930,8142.265362,17764.942608,-69101.813920
105.965479,-7550.100608,10362.883188,-70327.566716
105.968028,4737.318029,4589.276840,-68795.375720
105.970577,9474.636058,19393.395680,-65271.336430
105.973126,2220.617826,5921.647536,-67722.842023
105.975675,2220.617826,10658.965565,-69867.909418
105.978224,7994.224174,15248.242405,-67876.061123
105.980773,11991.336260,-9770.718434,-68182.499322
105.983322,6217.729913,2072.576638,-68335.718422
105.985870,2516.700203,5033.400406,-68948.594820
105.988419,10066.800811,12435.459826,-66956.746525
105.990968,4885.359217,9178.553681,-68182.499322
105.993517,-3997.112087,16876.695478,-69714.690318
105.996066,6957.935855,23834.631332,-68335.718422
105.998615,8586.388927,5625.565159,-68488.937521
106.001164,6661.853478,-7698.141797,-68488.937521
106.003713,6513.812290,27091.537477,-65118.117330
106.006262,4293.194464,25759.166782,-69867.909418
106.008811,444.123565,6809.894666,-70940.443115
106.011360,13323.706956,-2220.617826,-64811.679131
106.013908,6809.894666,-888.247130,-66650.308326
106.016457,740.205942,4293.194464,-71400.100414
106.019006,14952.160028,-17468.860231,-68642.156621
106.021555,10658.965565,13619.789333,-68488.937521
106.024104,-2220.617826,25759.166782,-69867.909418
106.026653,1480.411884,-11695.253884,-70327.566716
106.029202,9326.594869,0.000000,-67569.622924
106.031751,9770.718434,15988.448347,-66497.089226
106.034300,-5329.482782,-4145.153275,-70634.004916
106.036849,7402.059420,3701.029710,-68948.594820
106.039398,16136.489536,1776.494261,-66343.870127
106.041946,2220.617826,-296.082377,-68642.156621
106.044495,2516.700203,4737.318029,-70174.347617
106.047044,4589.276840,-1184.329507,-68642.156621
106.049601,13767.830521,-25463.084405,-68642.156621
106.052158,3701.029710,13027.624579,-69867.909418
106.054715,2960.823768,11843.295072,-68795.375720
106.057272,3108.864956,592.164754,-69255.033019
106.059829,6957.935855,-4885.359217,-69101.813920
106.062385,10510.924376,-6661.853478,-66190.651027
106.064942,0.000000,10214.842000,-68948.594820
106.067499,12139.377449,5921.647536,-67263.184724
106.070056,6957.935855,8734.430116,-70480.785816
106.072612,5329.482782,34937.720462,-66497.089226
106.075169,3108.864956,-9622.677246,-69101.813920
106.077726,-7254.018232,-8438.347739,-72779.072310
106.080283,12287.418637,18801.230927,-64198.802732
106.082839,15100.201217,3108.864956,-66956.746525
106.085396,-7254.018232,16284.530724,-74004.825107
106.087953,740.205942,18209.066173,-64964.898230
106.090510,5625.565159,-5625.565159,-65884.212828
106.093067,12435.459826,15100.201217,-70327.566716
106.095623,10658.965565,14211.954086,-68642.156621
106.098180,-3256.906145,-2368.659014,-69408.252119
106.100737,8586.388927,16432.571912,-66956.746525
106.103294,3108.864956,20133.601622,-68488.937521
106.105850,-2368.659014,148.041188,-68948.594820
106.108407,7550.100608,14656.077652,-66343.870127
106.110964,6365.771101,11103.089130,-69561.471218
106.113521,9918.759623,-9622.677246,-68948.594820
106.116077,12731.542202,-1776.494261,-66497.089226
106.118634,-444.123565,36714.214723,-69101.813920
106.121191,-5773.606348,29312.155303,-70787.224015
106.123748,9622.677246,10510.924376,-65884.212828
106.126305,592.164754,4441.235652,-68488.937521
106.128861,5625.565159,18209.066173,-66956.746525
106.131418,11103.089130,8142.265362,-67416.403824
106.133975,1036.288319,11251.130318,-71706.538613
106.136532,7402.059420,16284.530724,-65884.212828
106.139088,8142.265362,10362.883188,-68795.375720
106.141645,7846.182985,-1776.494261,-70021.128517
106.144202,7994.224174,4293.194464,-67263.184724
106.146759,4885.359217,13915.871710,-66343.870127
106.149315,3849.070898,23982.672521,-68335.718422
106.151877,13175.665768,-20577.725188,-68642.156621
106.154439,8586.388927,740.205942,-70021.128517
106.157001,-1036.288319,15692.365970,-70021.128517
106.159563,12139.377449,-7402.059420,-66190.651027
106.162125,3849.070898,9474.636058,-68795.375720
106.164687,-592.164754,444.123565,-69408.252119
106.167249,2664.741391,-10510.924376,-68948.594820
106.169811,12583.501014,6513.812290,-68182.499322
106.172373,16136.489536,1332.370696,-64811.679131
106.174935,-3997.112087,-740.205942,-71246.881314
106.177497,740.205942,9918.759623,-71093.662214
106.180059,5329.482782,19985.560434,-67416.403824
106.182621,4885.359217,2220.617826,-68182.499322
106.185183,12879.583391,3552.988522,-68029.280222
106.187745,-888.247130,-888.247130,-70480.785816
106.190307,1184.329507,14508.036463,-68488.937521
106.192869,6217.729913,3701.029710,-68948.594820
106.195431,2664.741391,-14804.118840,-69714.690318
106.197993,4737.318029,-7698.141797,-70787.224015
106.200555,8438.347739,-2812.782580,-70480.785816
106.203117,3997.112087,12287.418637,-69408.252119
106.205679,2368.659014,7698.141797,-69255.033019
106.208241,6957.935855,-2072.576638,-67263.184724
106.210803,-3108.864956,8438.347739,-72166.195912
106.213365,5773.606348,888.247130,-69255.033019
106.215927,19097.313304,-13323.706956,-67263.184724
106.218489,-3997.112087,24870.919651,-69408.252119
106.221051,1036.288319,16580.613101,-64352.021832
106.223613,2072.576638,-6069.688724,-71246.881314
106.226175,21021.848753,12731.542202,-67876.061123
106.228737,0.000000,7105.977043,-69561.471218
106.231299,-5773.606348,21762.054695,-69714.690318
106.233861,10214.842000,12583.501014,-67876.061123
106.236423,9622.677246,4737.318029,-66497.089226
106.238984,-1036.288319,4885.359217,-67876.061123
106.241546,4885.359217,6661.853478,-70787.224015
106.244108,13767.830521,10066.800811,-67416.403824
106.246670,9622.677246,-3849.070898,-67263.184724
106.249232,6069.688724,26351.331535,-67109.965625
106.251794,2812.782580,8142.265362,-71246.881314
106.254361,6217.729913,6069.688724,-65118.117330
106.256928,1776.494261,18357.107362,-67416.403824
106.259494,5773.606348,10214.842000,-68488.937521
106.262061,8734.430116,9474.636058,-68488.937521
106.264628,1480.411884,17912.983796,-67876.061123
106.267194,6217.729913,1036.288319,-67722.842023
106.269761,8882.471304,23094.425390,-68335.718422
106.272327,8586.388927,13619.789333,-68488.937521
106.274894,-4737.318029,148.041188,-69714.690318
106.277461,5921.647536,17172.777854,-65424.555529
106.280027,12583.501014,11547.212695,-68029.280222
106.282594,6661.853478,-24722.878463,-71246.881314
106.285161,7846.182985,9326.594869,-69561.471218
106.287727,-4145.153275,30348.443622,-70634.004916
106.290294,11251.130318,-6661.853478,-65884.212828
106.292861,7254.018232,4293.194464,-67722.842023
106.295427,-5329.482782,1924.535449,-72166.195912
106.297994,7402.059420,-2812.782580,-67416.403824
106.300561,10955.047942,7550.100608,-68182.499322
106.303127,5921.647536,-3849.070898,-70021.128517
106.305694,-888.247130,-15692.365970,-69867.909418
106.308260,-740.205942,-1480.411884,-70327.566716
106.310827,18801.230927,-5921.647536,-65118.117330
106.313394,444.123565,2516.700203,-71093.662214
106.315960,1332.370696,12583.501014,-71246.881314
106.318527,4737.318029,-12139.377449,-69101.813920
106.321094,10214.842000,23242.466579,-66497.089226
106.323660,-1480.411884,7994.224174,-71859.757712
106.326227,-2516.700203,-16580.613101,-71093.662214
106.328794,13915.871710,-4293.194464,-66343.870127
106.331360,19097.313304,2516.700203,-65424.555529
106.333927,7698.141797,9918.759623,-67722.842023
106.336494,-8142.265362,2072.576638,-73698.386908
106.339060,9770.718434,16432.571912,-65577.774629
106.341627,8586.388927,3701.029710,-67569.622924
106.344193,2812.782580,-16432.571912,-71859.757712
106.346760,9474.636058,21762.054695,-67876.061123
106.349327,-5329.482782,21465.972318,-66650.308326
106.351893,592.164754,8586.388927,-67569.622924
106.354460,13471.748144,-2220.617826,-67569.622924
106.357030,13619.789333,-2664.741391,-67569.622924
106.359601,-1332.370696,-2368.659014,-70940.443115
106.362171,592.164754,23538.548956,-66956.746525
106.364741,14211.954086,15544.324782,-64964.898230
106.367311,-740.205942,3404.947333,-68795.375720
106.369882,2220.617826,15692.365970,-67263.184724
106.372452,3552.988522,5033.400406,-70021.128517
106.375022,19393.395680,-11103.089130,-66190.651027
106.377593,148.041188,27239.578666,-70327.566716
106.380163,-1480.411884,22502.260637,-68948.594820
106.382733,10066.800811,19985.560434,-66037.431928
106.385304,1036.288319,18801.230927,-68335.718422
106.387874,-3552.988522,-1924.535449,-71093.662214
106.390444,12583.501014,3108.864956,-66803.527426
106.393014,13767.830521,16580.613101,-67416.403824
106.395585,-5477.523971,19985.560434,-70174.347617
106.398155,14508.036463,8438.347739,-65577.774629
106.400725,9030.512492,8734.430116,-70174.347617
106.403296,-4145.153275,17912.983796,-69561.471218
106.405866,7402.059420,5181.441594,-63892.364533
106.408436,4885.359217,14508.036463,-68488.937521
106.411006,12731.542202,-9326.594869,-70021.128517
106.413577,4589.276840,-11399.171507,-72012.976812
106.416147,1332.370696,20873.807564,-68335.718422
106.418717,8438.347739,1332.370696,-67263.184724
106.421288,6069.688724,5033.400406,-68335.718422
106.423858,1628.453072,12139.377449,-67722.842023
106.426428,2960.823768,-5921.647536,-68182.499322
106.428998,4737.318029,-12879.583391,-70480.785816
106.431569,16432.571912,11843.295072,-66037.431928
106.434139,-6809.894666,7846.182985,-69408.252119
106.436709,5033.400406,14063.912898,-68488.937521
106.439280,8142.265362,-2960.823768,-68029.280222
106.441850,9030.512492,-23982.672521,-70480.785816
106.444420,6069.688724,26647.413912,-67722.842023
106.446990,2220.617826,16876.695478,-68948.594820
106.449561,4441.235652,-9030.512492,-70787.224015
106.452131,148.041188,7994.224174,-70787.224015
106.454701,9770.718434,-5033.400406,-66343.870127
106.457272,2960.823768,-16284.530724,-72472.634111
106.459844,4885.359217,10807.006753,-71553.319513
106.462416,3997.112087,13175.665768,-68335.718422
106.464988,8142.265362,10510.924376,-66956.746525
106.467560,-1332.370696,7254.018232,-70327.566716
106.470132,-2220.617826,-9918.759623,-71400.100414
106.472705,23242.466579,-296.082377,-64352.021832
106.475277,592.164754,29016.072926,-68488.937521
106.477849,-13175.665768,21614.013506,-70174.347617
106.480421,3552.988522,-4145.153275,-67569.622924
106.482993,22206.178260,12731.542202,-67569.622924
106.485565,6365.771101,10362.883188,-69408.252119
106.488138,-5181.441594,11399.171507,-71093.662214
106.490710,3404.947333,15544.324782,-67876.061123
106.493282,12731.542202,20281.642811,-66190.651027
106.495854,-444.123565,3108.864956,-68335.718422
106.498426,-1628.453072,12287.418637,-71093.662214
106.500998,15692.365970,20577.725188,-66497.089226
106.503571,5329.482782,15396.283594,-69101.813920
106.506143,-5181.441594,10510.924376,-70940.443115
106.508715,9622.677246,444.123565,-67109.965625
106.511287,12435.459826,12879.583391,-67722.842023
106.513859,-3108.864956,31088.649564,-68335.718422
106.516431,4589.276840,21614.013506,-67263.184724
106.519004,3108.864956,1776.494261,-71859.757712
106.521576,6513.812290,13619.789333,-67722.842023
106.524148,12139.377449,2072.576638,-64964.898230
106.526720,-3997.112087,8142.265362,-75383.797003
106.529292,11103.089130,24574.837274,-63432.707234
106.531864,10362.883188,-6957.935855,-66037.431928
106.534437,-11399.171507,16136.489536,-73238.729609
106.537009,7846.182985,10807.006753,-67876.061123
106.539581,18357.107362,2072.576638,-67416.403824
106.542153,-3701.029710,23834.631332,-70021.128517
106.544725,13619.789333,-12879.583391,-67109.965625
106.547297,-8586.388927,444.123565,-73851.606007
106.549870,14508.036463,18505.148550,-62360.173537
106.552442,3404.947333,-5477.523971,-68182.499322
106.555014,148.041188,-10807.006753,-73085.510509
106.557586,11399.171507,7402.059420,-66803.527426
106.560158,2220.617826,6069.688724,-68029.280222
106.562732,5477.523971,-1776.494261,-67876.061123
106.565306,740.205942,11103.089130,-70940.443115
106.567880,3701.029710,-26055.249158,-70174.347617
106.570453,7254.018232,-7846.182985,-68948.594820
106.573027,9622.677246,18801.230927,-66650.308326
106.575601,5033.400406,-15692.365970,-70021.128517
106.578175,-888.247130,9474.636058,-68642.156621
106.580748,14211.954086,9770.718434,-65424.555529
106.583322,-5329.482782,-10955.047942,-73851.606007
106.585896,11695.253884,3256.906145,-66037.431928
106.588470,12879.583391,1628.453072,-66190.651027
106.591044,-3997.112087,-1480.411884,-71706.538613
106.593617,2664.741391,11843.295072,-68182.499322
106.596191,3404.947333,21614.013506,-69255.033019
106.598765,5773.606348,1184.329507,-69255.033019
106.601339,13175.665768,1776.494261,-66803.527426
106.603912,-11399.171507,27239.578666,-69714.690318
106.606486,9178.553681,-1480.411884,-65577.774629
106.609060,13323.706956,9030.512492,-69714.690318
106.611634,7402.059420,10955.047942,-69101.813920
106.614208,148.041188,5625.565159,-68795.375720
106.616781,-2960.823768,16432.571912,-69867.909418
106.619355,16728.654289,21465.972318,-64352.021832
106.621929,3849.070898,6809.894666,-66037.431928
106.624503,1924.535449,-444.123565,-70480.785816
106.627076,11103.089130,13471.748144,-68335.718422
106.629650,11843.295072,-2072.576638,-67416.403824
106.632224,-1480.411884,3701.029710,-69101.813920
106.634798,8290.306550,15100.201217,-68029.280222
106.637371,10807.006753,1776.494261,-68488.937521
106.639945,-8734.430116,25463.084405,-70021.128517
106.642519,5181.441594,13915.871710,-66343.870127
106.645093,11695.253884,-296.082377,-68948.594820
106.647667,1776.494261,3552.988522,-69714.690318
106.650240,10510.924376,17468.860231,-66343.870127
106.652814,-1184.329507,20873.807564,-72319.415011
106.655388,13471.748144,3552.988522,-66037.431928
106.657962,-3849.070898,6809.894666,-70174.347617
106.660535,-3997.112087,12731.542202,-70634.004916
106.663109,17468.860231,-14211.954086,-68948.594820
106.665684,8882.471304,3701.029710,-70021.128517
106.668259,-2516.700203,13619.789333,-69714.690318
106.670835,2072.576638,-3256.906145,-68488.937521
106.673410,7550.100608,888.247130,-69714.690318
106.675985,6217.729913,4145.153275,-67722.842023
106.678560,2664.741391,2368.659014,-68795.375720
106.681135,1776.494261,-2812.782580,-72472.634111
106.683710,7698.141797,-4441.235652,-70021.128517
106.686285,3108.864956,-2516.700203,-66803.527426
106.688860,888.247130,1924.535449,-69714.690318
106.691436,12435.459826,-14656.077652,-69867.909418
106.694011,5921.647536,3256.906145,-68948.594820
106.696586,0.000000,9474.636058,-69867.909418
106.699161,3997.112087,13323.706956,-67876.061123
106.701736,5921.647536,10362.883188,-68182.499322
106.704311,6661.853478,-6661.853478,-67876.061123
106.706886,148.041188,-10510.924376,-70021.128517
106.709461,7846.182985,4885.359217,-68795.375720
106.712036,14804.118840,23094.425390,-64964.898230
106.714612,-1628.453072,18357.107362,-70634.004916
106.717187,-9622.677246,-23686.590144,-74004.825107
106.719762,27387.619854,-24870.919651,-61440.858940
106.722337,6069.688724,5033.400406,-70787.224015
106.724912,-3997.112087,36714.214723,-70940.443115
106.727487,-8586.388927,30052.361245,-67263.184724
106.730062,8586.388927,-1332.370696,-66956.746525
106.732637,14804.118840,7105.977043,-70634.004916
106.735213,5033.400406,12287.418637,-69408.252119
106.737788,-5033.400406,15988.448347,-70021.128517
106.740363,14063.912898,19837.519246,-64658.460031
106.742938,5329.482782,4441.235652,-69561.471218
106.745513,-1776.494261,4145.153275,-69561.471218
106.748088,5329.482782,12287.418637,-66956.746525
106.750663,12139.377449,23538.548956,-67722.842023
106.753238,-1924.535449,-3849.070898,-70940.443115
106.755813,9770.718434,12139.377449,-65577.774629
106.758389,6365.771101,16728.654289,-68029.280222
106.760964,1036.288319,2368.659014,-68948.594820
106.763539,1628.453072,14952.160028,-67876.061123
106.766114,6661.853478,19245.354492,-68642.156621
106.768689,7698.141797,6513.812290,-68182.499322
106.771264,-2664.741391,11251.130318,-69867.909418
106.773839,15544.324782,15544.324782,-64198.802732
106.776414,1776.494261,24426.796086,-72472.634111
106.778989,148.041188,14211.954086,-72166.195912
106.781564,8586.388927,12287.418637,-63279.488135
106.784139,14063.912898,9030.512492,-66037.431928
106.786714,4589.276840,-14656.077652,-74158.044206
106.789289,1628.453072,2220.617826,-70940.443115
106.791864,10658.965565,19689.478057,-65577.774629
106.794439,3701.029710,-7105.977043,-70327.566716
106.797014,0.000000,-4145.153275,-70634.004916
106.799590,10214.842000,9030.512492,-65577.774629
106.802165,1776.494261,-4589.276840,-69255.033019
106.804740,4885.359217,2812.782580,-70021.128517
106.807315,2812.782580,8586.388927,-68795.375720
106.809890,296.082377,-20429.683999,-70174.347617
106.812465,7254.018232,592.164754,-66956.746525
106.815040,12139.377449,10658.965565,-68182.499322
106.817615,2220.617826,9622.677246,-71246.881314
106.820190,1184.329507,-6365.771101,-69101.813920
106.822765,3404.947333,5625.565159,-68642.156621
106.825340,6661.853478,4441.235652,-70174.347617
106.827915,7105.977043,-11547.212695,-68335.718422
106.830490,1332.370696,-592.164754,-68948.594820
106.833065,13471.748144,7402.059420,-67263.184724
106.835640,5773.606348,7254.018232,-69561.471218
106.838215,-3701.029710,-2368.659014,-71246.881314
106.840790,5033.400406,7254.018232,-69408.252119
106.843365,5773.606348,2960.823768,-70480.785816
106.845940,6365.771101,-6957.935855,-70634.004916
106.848515,6513.812290,25018.960840,-64505.240932
106.851090,-6513.812290,16580.613101,-68335.718422
106.853666,4145.153275,-2368.659014,-70480.785816
106.856241,24870.919651,444.123565,-65730.993728
106.858816,6069.688724,740.205942,-67263.184724
106.861391,-5181.441594,20281.642811,-70327.566716
106.863966,6661.853478,15248.242405,-68182.499322
106.866541,6513.812290,18505.148550,-65730.993728
106.869116,3701.029710,8142.265362,-65730.993728
106.871691,9030.512492,13619.789333,-67263.184724
106.874266,3701.029710,2812.782580,-72012.976812
106.876841,11399.171507,-2072.576638,-66037.431928
106.879416,740.205942,14508.036463,-67876.061123
106.881991,9918.759623,17468.860231,-67569.622924
106.884566,-1036.288319,19541.436869,-68642.156621
106.887141,-6957.935855,18801.230927,-71246.881314
106.889716,15692.365970,14359.995275,-65577.774629
106.892291,148.041188,-5625.565159,-71859.757712
106.894866,11991.336260,18801.230927,-65884.212828
106.897440,3997.112087,23982.672521,-68335.718422
106.900015,3404.947333,9474.636058,-69561.471218
106.902590,3108.864956,3849.070898,-67722.842023
106.905165,7698.141797,148.041188,-65884.212828
106.907740,1924.535449,-4145.153275,-70327.566716
106.910315,19245.354492,9326.594869,-67109.965625
106.912890,888.247130,13471.748144,-68795.375720
106.915465,-3256.906145,1628.453072,-71706.538613
106.918040,13323.706956,4737.318029,-66037.431928
106.920615,-1184.329507,-6661.853478,-70940.443115
106.923190,8734.430116,7550.100608,-66037.431928
106.925765,1776.494261,2072.576638,-71400.100414
106.928340,6069.688724,2368.659014,-70327.566716
106.930915,3552.988522,2812.782580,-66190.651027
106.933490,6809.894666,-13175.665768,-67722.842023
106.936065,5773.606348,7254.018232,-70787.224015
106.938640,4145.153275,-148.041188,-70480.785816
106.941215,3701.029710,14063.912898,-68335.718422
106.943790,1036.288319,888.247130,-69561.471218
106.946365,17912.983796,7994.224174,-65118.117330
106.948940,-4885.359217,-9622.677246,-70940.443115
106.951515,2812.782580,-3108.864956,-68795.375720
106.954090,14211.954086,1184.329507,-67416.403824
106.956665,1480.411884,5921.647536,-69101.813920
106.959241,5033.400406,15840.407159,-66497.089226
106.961816,2220.617826,-11399.171507,-69714.690318
106.964391,11251.130318,-888.247130,-71706.538613
106.966966,15840.407159,21910.095883,-65730.993728
106.969542,-10362.883188,19837.519246,-69255.033019
106.972117,-5181.441594,6809.894666,-69255.033019
106.974692,28719.990550,-8586.388927,-63892.364533
106.977267,9030.512492,-888.247130,-71400.100414
106.979843,-5477.523971,21614.013506,-70327.566716
106.982418,1036.288319,22502.260637,-66497.089226
106.984993,13323.706956,12731.542202,-67109.965625
106.987568,1628.453072,1924.535449,-68948.594820
106.990144,-1628.453072,-1924.535449,-69561.471218
106.992719,12435.459826,5921.647536,-67109.965625
106.995294,16136.489536,2368.659014,-67109.965625
106.997869,-888.247130,148.041188,-69408.252119
107.000445,3256.906145,9474.636058,-70174.347617
107.003020,12139.377449,9622.677246,-66650.308326
107.005595,-2368.659014,15988.448347,-68335.718422
107.008170,2220.617826,20281.642811,-67416.403824
107.010746,9474.636058,3997.112087,-69408.252119
107.013321,2220.617826,6513.812290,-70787.224015
107.015896,14063.912898,13619.789333,-65424.555529
107.018471,8290.306550,-2368.659014,-67263.184724
107.021047,-148.041188,12435.459826,-70634.004916
107.023622,-1628.453072,33309.267390,-67263.184724
107.026197,5033.400406,1628.453072,-67109.965625
107.028772,9474.636058,-9918.759623,-70787.224015
107.031348,12139.377449,-2664.741391,-66803.527426
107.033923,7105.977043,7846.182985,-66956.746525
107.036498,-7994.224174,4737.318029,-73545.167808
107.039073,16432.571912,21021.848753,-65424.555529
107.041649,-1480.411884,-7105.977043,-71553.319513
107.044224,3701.029710,-4145.153275,-70174.347617
107.046799,6809.894666,5477.523971,-69101.813920
107.049374,1184.329507,-9918.759623,-69867.909418
107.051950,5477.523971,1924.535449,-66343.870127
107.054525,4145.153275,1036.288319,-69101.813920
107.057062,14508.036463,-1924.535449,-68335.718422
107.059598,1184.329507,13027.624579,-70327.566716
107.062134,-1184.329507,9474.636058,-67569.622924
107.064671,10214.842000,-13915.871710,-69714.690318
107.067207,5921.647536,-9178.553681,-69408.252119
107.069743,2664.741391,592.164754,-66956.746525
107.072280,11547.212695,8290.306550,-66037.431928
107.074816,6217.729913,17616.901420,-68029.280222
107.077352,-3256.906145,12879.583391,-72166.195912
107.079889,-592.164754,-444.123565,-68948.594820
107.082425,11843.295072,-6957.935855,-68488.937521
107.084961,16580.613101,-10214.842000,-69255.033019
107.087498,-5477.523971,34197.514520,-68795.375720
107.090034,-1776.494261,19985.560434,-65730.993728
107.092570,7254.018232,-14952.160028,-70787.224015
107.095107,14508.036463,14804.118840,-69408.252119
107.097643,-3256.906145,6365.771101,-68488.937521
107.100179,7254.018232,8734.430116,-66650.308326
107.102716,3701.029710,22946.384202,-70634.004916
107.105252,1184.329507,6069.688724,-68335.718422
107.107788,13175.665768,15100.201217,-62666.611736
107.110325,740.205942,27387.619854,-71553.319513
107.112861,5033.400406,-296.082377,-70174.347617
107.115397,6957.935855,10066.800811,-66803.527426
107.117933,3404.947333,20133.601622,-66037.431928
107.120470,7550.100608,6513.812290,-68795.375720
107.123006,-740.205942,9178.553681,-70787.224015
107.125542,-3997.112087,15988.448347,-70021.128517
107.128079,10658.965565,13175.665768,-66037.431928
107.130615,9622.677246,11695.253884,-68795.375720
107.133151,3552.988522,12287.418637,-68948.594820
107.135688,2664.741391,5921.647536,-67569.622924
107.138224,9622.677246,6957.935855,-66343.870127
107.140760,6365.771101,19541.436869,-67722.842023
107.143297,-2664.741391,-10362.883188,-70634.004916
107.145833,7698.141797,11251.130318,-69408.252119
107.148369,18505.148550,18949.272115,-65577.774629
107.150906,4589.276840,-2368.659014,-69101.813920
107.153442,-9178.553681,-6809.894666,-74158.044206
107.155978,21465.972318,2368.659014,-62819.830836
107.158522,6217.729913,9326.594869,-68182.499322
107.161066,-9622.677246,-2960.823768,-73851.606007
107.163610,9326.594869,8290.306550,-66650.308326
107.166154,12139.377449,-10955.047942,-67263.184724
107.168698,1184.329507,-18357.107362,-70021.128517
107.171242,-740.205942,13027.624579,-70634.004916
107.173786,11399.171507,18949.272115,-68488.937521
107.176330,2368.659014,1332.370696,-66650.308326
107.178874,148.041188,9770.718434,-69408.252119
107.181418,13175.665768,-7550.100608,-70174.347617
107.183962,10214.842000,-6217.729913,-67416.403824
107.186506,-3701.029710,13175.665768,-69101.813920
107.189050,6809.894666,7698.141797,-67876.061123
107.191594,12731.542202,9326.594869,-67722.842023
107.194138,-7550.100608,-12139.377449,-72779.072310
107.196682,6513.812290,-2220.617826,-66190.651027
107.199226,22058.137072,10807.006753,-65577.774629
107.201770,8142.265362,25463.084405,-68029.280222
107.204314,-16580.613101,15544.324782,-70327.566716
107.206858,9770.718434,-3849.070898,-66956.746525
107.209402,14359.995275,23834.631332,-69714.690318
107.211946,9178.553681,6513.812290,-66343.870127
107.214490,-6217.729913,1332.370696,-70174.347617
107.217034,7846.182985,21465.972318,-66803.527426
107.219578,14063.912898,6513.812290,-66497.089226
107.222122,-6513.812290,10362.883188,-71093.662214
107.224666,1628.453072,21762.054695,-67263.184724
107.227210,19097.313304,21169.889941,-66190.651027
107.229754,-740.205942,6957.935855,-70634.004916
107.232298,4441.235652,1924.535449,-66803.527426
107.234842,9622.677246,3997.112087,-70480.785816
107.237386,-888.247130,22502.260637,-69561.471218
107.239930,-2368.659014,19985.560434,-68182.499322
107.242474,6661.853478,7698.141797,-67416.403824
107.245018,12879.583391,-5921.647536,-69101.813920
107.247562,4737.318029,12287.418637,-69561.471218
107.250106,592.164754,15544.324782,-69408.252119
107.252650,1332.370696,20873.807564,-70021.128517
107.255194,-6069.688724,32717.102636,-70940.443115
107.257738,1480.411884,-4885.359217,-67109.965625
107.260289,20133.601622,-28868.031738,-67109.965625
107.262840,8438.347739,6365.771101,-70480.785816
107.265390,-2812.782580,14804.118840,-69408.252119
107.267941,6513.812290,-888.247130,-66037.431928
107.270491,12435.459826,9770.718434,-66650.308326
107.273042,4441.235652,9474.636058,-70480.785816
107.275592,-3849.070898,-18505.148550,-71400.100414
107.278143,3701.029710,-148.041188,-68642.156621
107.280694,15988.448347,11547.212695,-64505.240932
107.283244,3701.029710,3849.070898,-68182.499322
107.285795,-5921.647536,-11843.295072,-72472.634111
107.288345,18061.024985,-10510.924376,-66343.870127
107.290896,9918.759623,-148.041188,-68642.156621
107.293446,5033.400406,-4737.318029,-69561.471218
107.295997,-2516.700203,-2220.617826,-71400.100414
107.298548,9178.553681,13471.748144,-66190.651027
107.301098,9326.594869,-10362.883188,-68029.280222
107.303649,-1332.370696,-11103.089130,-70480.785816
107.306199,2368.659014,-10362.883188,-70480.785816
107.308750,13175.665768,14804.118840,-66190.651027
107.311300,-1036.288319,4885.359217,-70174.347617
107.313851,9326.594869,5181.441594,-70021.128517
107.316402,8882.471304,29608.237680,-65118.117330
107.318952,-6513.812290,1332.370696,-69408.252119
107.321503,2960.823768,-148.041188,-68488.937521
107.324053,20577.725188,21317.931130,-66497.089226
107.326604,10658.965565,12583.501014,-68488.937521
107.329154,-12879.583391,12583.501014,-71706.538613
107.331705,16136.489536,13619.789333,-63432.707234
107.334256,10658.965565,4589.276840,-66956.746525
107.336806,-148.041188,4293.194464,-70634.004916
107.339357,-2368.659014,17912.983796,-69561.471218
107.341907,20281.642811,-10214.842000,-66650.308326
107.344458,4885.359217,16136.489536,-70480.785816
107.347008,-2960.823768,14804.118840,-68335.718422
107.349559,5625.565159,6217.729913,-68335.718422
107.352110,8290.306550,27683.702231,-67722.842023
107.354660,1184.329507,8438.347739,-70021.128517
107.357211,-5625.565159,-296.082377,-70021.128517
107.359761,17616.901420,18357.107362,-66037.431928
107.362280,9178.553681,11695.253884,-67722.842023
107.364798,-12879.583391,22798.343014,-72166.195912
107.367317,16284.530724,7698.141797,-63126.269035
107.369835,5181.441594,5625.565159,-70480.785816
107.372354,4885.359217,-14063.912898,-70327.566716
107.374873,-2220.617826,6809.894666,-71553.319513
107.377391,18061.024985,28275.866984,-64198.802732
107.379910,3108.864956,-6365.771101,-69714.690318
107.382428,-8734.430116,-6513.812290,-73238.729609
107.384947,3552.988522,-15840.407159,-70480.785816
107.387465,19837.519246,-740.205942,-63279.488135
107.389984,-5477.523971,7994.224174,-72932.291410
107.392502,-148.041188,1184.329507,-70787.224015
107.395021,9326.594869,8290.306550,-66343.870127
107.397539,6661.853478,-9030.512492,-68335.718422
107.400058,5625.565159,-1036.288319,-69101.813920
107.402577,4293.194464,1924.535449,-70174.347617
107.405095,8586.388927,-148.041188,-64811.679131
107.407614,12435.459826,-6513.812290,-66803.527426
107.410132,6069.688724,-3404.947333,-70634.004916
107.412651,3701.029710,7846.182985,-68488.937521
107.415169,740.205942,-888.247130,-67416.403824
107.417688,6661.853478,16580.613101,-67569.622924
107.420206,9178.553681,-6365.771101,-67876.061123
107.422725,-592.164754,-10066.800811,-71706.538613
107.425244,7550.100608,5921.647536,-69561.471218
107.427762,15544.324782,19837.519246,-66497.089226
107.430281,-8142.265362,19097.313304,-71553.319513
107.432799,6661.853478,-8290.306550,-65884.212828
107.435318,11251.130318,14952.160028,-68642.156621
107.437836,2516.700203,24130.713709,-71246.881314
107.440355,-592.164754,8142.265362,-67109.965625
107.442873,7550.100608,10807.006753,-66956.746525
107.445392,4737.318029,18061.024985,-68948.594820
107.447910,1332.370696,-1628.453072,-68642.156621
107.450429,6365.771101,31088.649564,-68488.937521
107.452948,-592.164754,28275.866984,-70021.128517
107.455466,13915.871710,-11695.253884,-67416.403824
107.457985,1332.370696,888.247130,-69408.252119
107.460503,6957.935855,23538.548956,-66650.308326
107.463034,12731.542202,12435.459826,-64198.802732
107.465564,1924.535449,23242.466579,-68335.718422
107.468094,-4885.359217,17320.819043,-72625.853210
107.470625,4293.194464,-1924.535449,-69101.813920
107.473155,19541.436869,4441.235652,-66650.308326
107.475685,-8734.430116,15396.283594,-72166.195912
107.478216,6661.853478,7550.100608,-65424.555529
107.480746,8882.471304,13619.789333,-67876.061123
107.483276,3404.947333,296.082377,-70787.224015
107.485807,-1332.370696,3849.070898,-71400.100414
107.488337,13619.789333,3997.112087,-67569.622924
107.490867,20281.642811,-15544.324782,-63279.488135
107.493398,-6365.771101,-12435.459826,-74770.920605
107.495928,5921.647536,13471.748144,-66956.746525
107.498458,11991.336260,16876.695478,-65271.336430
107.500989,-296.082377,-8734.430116,-71859.757712
107.503519,592.164754,-10214.842000,-70327.566716
107.506049,9326.594869,-4441.235652,-65577.774629
107.508580,7254.018232,18801.230927,-68029.280222
107.511110,-3701.029710,20133.601622,-70174.347617
107.513640,9474.636058,1628.453072,-69867.909418
107.516171,9622.677246,3997.112087,-67569.622924
107.518701,2960.823768,3849.070898,-68948.594820
107.521231,4737.318029,-11251.130318,-68948.594820
107.523762,9770.718434,6957.935855,-68029.280222
107.526292,3701.029710,11695.253884,-68029.280222
107.528822,-888.247130,3552.988522,-70021.128517
107.531352,-1776.494261,8142.265362,-70021.128517
107.533883,14952.160028,-12731.542202,-66497.089226
107.536413,10066.800811,-7254.018232,-68948.594820
107.538943,8290.306550,36122.049970,-65730.993728
107.541474,-7846.182985,19985.560434,-68488.937521
107.544004,-3849.070898,8142.265362,-70634.004916
107.546534,19097.313304,21317.931130,-67109.965625
107.549065,7254.018232,3849.070898,-68029.280222
107.551595,-444.123565,4885.359217,-68948.594820
107.554125,1036.288319,21762.054695,-68182.499322
107.556656,11251.130318,13175.665768,-67416.403824
107.559186,296.082377,11251.130318,-68182.499322
107.561716,-2368.659014,16432.571912,-70787.224015
107.564257,16136.489536,-19689.478057,-68029.280222
107.566797,11547.212695,9770.718434,-67722.842023
107.569337,-1776.494261,28423.908173,-65884.212828
107.571877,9622.677246,-6513.812290,-67263.184724
107.574418,11103.089130,9030.512492,-67876.061123
107.576958,-2072.576638,25167.002028,-68795.375720
107.579498,8290.306550,7105.977043,-66497.089226
107.582038,4737.318029,3849.070898,-70787.224015
107.584578,10510.924376,5625.565159,-69561.471218
107.587119,-4441.235652,5625.565159,-67876.061123
107.589659,13027.624579,20429.683999,-66037.431928
107.592199,3108.864956,22058.137072,-70174.347617
107.594739,296.082377,5625.565159,-71553.319513
107.597280,4885.359217,-1480.411884,-68948.594820
107.599820,10066.800811,740.205942,-67722.842023
107.602360,10658.965565,-9474.636058,-67876.061123
107.604900,-7402.059420,9030.512492,-72779.072310
107.607440,10510.924376,18949.272115,-65730.993728
107.609981,6957.935855,-14804.118840,-70174.347617
107.612521,1036.288319,-3849.070898,-72319.415011
107.615061,4885.359217,-1036.288319,-67416.403824
107.617601,7550.100608,-17320.819043,-68335.718422
107.620142,4441.235652,10362.883188,-66037.431928
107.622682,6957.935855,7254.018232,-68795.375720
107.625222,1036.288319,-16580.613101,-69714.690318
107.627762,8882.471304,-11399.171507,-69867.909418
107.630302,11547.212695,2368.659014,-67416.403824
107.632843,3108.864956,-8290.306550,-69867.909418
107.635383,1036.288319,22058.137072,-68029.280222
107.637923,8290.306550,3552.988522,-68335.718422
107.640463,2664.741391,-13175.665768,-69101.813920
107.643004,11547.212695,-5181.441594,-65118.117330
107.645544,22502.260637,-17764.942608,-68029.280222
107.648084,-592.164754,32865.143825,-70021.128517
107.650624,-4145.153275,32865.143825,-66343.870127
107.653165,592.164754,-444.123565,-68029.280222
107.655705,13915.871710,11843.295072,-69408.252119
107.658245,11547.212695,4737.318029,-67263.184724
107.660785,-1924.535449,12879.583391,-68029.280222
107.663325,1628.453072,19097.313304,-68182.499322
107.665874,8882.471304,12139.377449,-67263.184724
107.668422,1924.535449,12731.542202,-67263.184724
107.670971,8882.471304,8882.471304,-66956.746525
107.673519,15692.365970,18357.107362,-68182.499322
107.676067,-1036.288319,13175.665768,-70021.128517
107.678616,740.205942,23094.425390,-67416.403824
107.681164,3701.029710,-3552.988522,-68948.594820
107.683713,14508.036463,-2664.741391,-66190.651027
107.686261,-2220.617826,22502.260637,-68948.594820
107.688810,8142.265362,16580.613101,-67109.965625
107.691358,11399.171507,15100.201217,-66650.308326
107.693906,3849.070898,-6661.853478,-69714.690318
107.696455,-296.082377,15396.283594,-68488.937521
107.699003,1184.329507,24130.713709,-70787.224015
107.701552,148.041188,2072.576638,-70021.128517
107.704100,8438.347739,1628.453072,-69101.813920
107.706648,9918.759623,0.000000,-68335.718422
107.709197,5181.441594,-148.041188,-69101.813920
107.711745,-5033.400406,444.123565,-70787.224015
107.714294,11251.130318,6365.771101,-67109.965625
107.716842,6217.729913,1776.494261,-68488.937521
107.719390,-1332.370696,-15100.201217,-71553.319513
107.721939,10362.883188,7698.141797,-67263.184724
107.724487,5033.400406,7994.224174,-69867.909418
107.727036,8734.430116,13027.624579,-66190.651027
107.729584,-10955.047942,21614.013506,-73085.510509
107.732133,16876.695478,-740.205942,-65884.212828
107.734681,7550.100608,-6217.729913,-70787.224015
107.737229,6809.894666,-6957.935855,-70480.785816
107.739778,1628.453072,-11695.253884,-70787.224015
107.742326,-296.082377,2516.700203,-70634.004916
107.744875,12287.418637,4293.194464,-65730.993728
107.747423,8142.265362,7846.182985,-67722.842023
107.749971,-7254.018232,5773.606348,-73545.167808
107.752520,592.164754,6365.771101,-70634.004916
107.755068,15692.365970,-6513.812290,-66190.651027
107.757617,10214.842000,21465.972318,-66343.870127
107.760165,-10658.965565,20133.601622,-69867.909418
107.762713,3404.947333,148.041188,-68335.718422
107.765262,19689.478057,26795.455100,-68335.718422
107.767817,148.041188,20133.601622,-68948.594820
107.770373,4145.153275,-12139.377449,-66190.651027
107.772928,10214.842000,16728.654289,-68488.937521
107.775483,-1776.494261,24722.878463,-70174.347617
107.778039,-4885.359217,-2812.782580,-70021.128517
107.780594,10362.883188,29904.320057,-67722.842023
107.783149,13175.665768,21021.848753,-68029.280222
107.785705,-3701.029710,-20873.807564,-73085.510509
107.788260,3997.112087,33309.267390,-65118.117330
107.790815,7698.141797,25611.125593,-66497.089226
107.793371,9326.594869,-2516.700203,-68795.375720
107.795926,-5033.400406,8586.388927,-71400.100414
107.798481,11991.336260,16728.654289,-65884.212828
107.801037,2220.617826,23242.466579,-68488.937521
107.803592,3552.988522,444.123565,-68795.375720
107.806148,9178.553681,12139.377449,-66497.089226
107.808703,2072.576638,18949.272115,-69561.471218
107.811258,10658.965565,-29312.155303,-69101.813920
107.813814,2368.659014,148.041188,-72166.195912
107.816369,7402.059420,31680.814318,-66497.089226
107.818924,-148.041188,-11695.253884,-69561.471218
107.821480,10214.842000,-6957.935855,-67569.622924
107.824035,4885.359217,11251.130318,-67109.965625
107.826590,2812.782580,-9770.718434,-68795.375720
107.829146,11695.253884,12139.377449,-67416.403824
107.831701,10807.006753,6809.894666,-67416.403824
107.834256,2220.617826,-30940.608376,-70480.785816
107.836812,-888.247130,13175.665768,-70634.004916
107.839367,10362.883188,6217.729913,-67109.965625
107.841922,5921.647536,-39971.120868,-69561.471218
107.844478,16136.489536,11547.212695,-65884.212828
107.847033,1480.411884,5477.523971,-72012.976812
107.849589,-4441.235652,2220.617826,-70480.785816
107.852144,13175.665768,11991.336260,-64352.021832
107.854699,7254.018232,-6069.688724,-68182.499322
107.857255,5625.565159,-7105.977043,-69255.033019
107.859810,-3849.070898,-6069.688724,-70940.443115
107.862365,17320.819043,2960.823768,-66650.308326
107.864921,6069.688724,35825.967593,-67569.622924
107.867476,-8438.347739,6809.894666,-69561.471218
107.870036,0.000000,-3108.864956,-68948.594820
107.872596,24278.754898,11547.212695,-65730.993728
107.875157,6365.771101,4589.276840,-69714.690318
107.877717,-2960.823768,12879.583391,-68182.499322
107.880277,4293.194464,21762.054695,-66497.089226
107.882837,-3552.988522,17172.777854,-70940.443115
107.885397,5181.441594,4145.153275,-65730.993728
107.887958,8734.430116,4145.153275,-67876.061123
107.890518,14063.912898,-1036.288319,-69714.690318
107.893078,2664.741391,8882.471304,-69867.909418
107.895638,3997.112087,42339.779882,-65271.336430
107.898199,-1036.288319,15100.201217,-69561.471218
107.900759,9770.718434,6069.688724,-67416.403824
107.903319,3108.864956,7105.977043,-68948.594820
107.905879,1184.329507,3849.070898,-69714.690318
107.908439,10807.006753,29164.114115,-66650.308326
107.911000,-8290.306550,18061.024985,-70787.224015
107.913560,12879.583391,3997.112087,-64658.460031
107.916120,6661.853478,10510.924376,-69101.813920
107.918680,9178.553681,-11843.295072,-70327.566716
107.921240,2516.700203,2664.741391,-70787.224015
107.923801,3997.112087,21169.889941,-68335.718422
107.926361,1628.453072,-7254.018232,-70787.224015
107.928921,7105.977043,-9030.512492,-68335.718422
107.931481,5477.523971,7994.224174,-66956.746525
107.934041,10658.965565,-16136.489536,-68029.280222
107.936602,11547.212695,12139.377449,-68642.156621
107.939162,-3108.864956,2664.741391,-71093.662214
107.941722,6809.894666,8438.347739,-66650.308326
107.944282,-2664.741391,11695.253884,-70327.566716
107.946843,11103.089130,-9326.594869,-68795.375720
107.949403,7105.977043,-4441.235652,-69561.471218
107.951963,3552.988522,6661.853478,-70021.128517
107.954523,3108.864956,2368.659014,-70021.128517
107.957083,9326.594869,-18505.148550,-70021.128517
107.959644,-3108.864956,2368.659014,-70174.347617
107.962204,8734.430116,3108.864956,-67263.184724
107.964764,15840.407159,8438.347739,-64505.240932
107.967324,-2960.823768,-3256.906145,-72012.976812
107.969884,-2664.741391,12287.418637,-71859.757712
107.972449,15692.365970,14063.912898,-62819.830836
107.975014,-1924.535449,7846.182985,-68948.594820
107.977578,-5329.482782,5921.647536,-70787.224015
107.980143,23094.425390,5921.647536,-64811.679131
107.982708,11843.295072,16432.571912,-67569.622924
107.985272,-5625.565159,4885.359217,-68948.594820
107.987837,-740.205942,5033.400406,-71706.538613
107.990401,5329.482782,27683.702231,-67109.965625
107.992966,3701.029710,10658.965565,-66803.527426
107.995531,7254.018232,-2516.700203,-69867.909418
107.998095,9918.759623,27831.743419,-69867.909418
108.000660,4737.318029,14063.912898,-67109.965625
108.003224,592.164754,-2664.741391,-69101.813920
108.005789,2368.659014,23686.590144,-69714.690318
108.008354,6365.771101,6957.935855,-68335.718422
108.010918,5181.441594,11399.171507,-68335.718422
108.013483,4885.359217,18061.024985,-66956.746525
108.016047,12139.377449,-8734.430116,-67569.622924
108.018612,5921.647536,4441.235652,-68795.375720
108.021177,1924.535449,27831.743419,-68335.718422
108.023741,-4145.153275,1776.494261,-72625.853210
108.026306,17616.901420,-2220.617826,-68335.718422
108.028871,5625.565159,888.247130,-69867.909418
108.031435,-296.082377,-9770.718434,-69867.909418
108.034000,11399.171507,7550.100608,-66343.870127
108.036564,2072.576638,17024.736666,-69867.909418
108.039129,-3552.988522,-4145.153275,-72472.634111
108.041694,-4293.194464,-2960.823768,-71706.538613
108.044258,12287.418637,-7994.224174,-67569.622924
108.046823,13767.830521,-11399.171507,-65271.336430
108.049387,-3404.947333,14359.995275,-70174.347617
108.051952,2664.741391,16432.571912,-70327.566716
108.054517,9622.677246,-18061.024985,-68182.499322
108.057081,6957.935855,21762.054695,-68335.718422
108.059646,-740.205942,10510.924376,-73238.729609
108.062210,1924.535449,-30792.567187,-71553.319513
108.064775,6661.853478,-4293.194464,-68335.718422
108.067340,18653.189738,-444.123565,-64505.240932
108.069904,8438.347739,1924.535449,-67569.622924
108.072469,-4293.194464,888.247130,-72319.415011
108.075000,8290.306550,16580.613101,-67263.184724
108.077533,9918.759623,25167.002028,-66037.431928
108.080066,-4145.153275,-4885.359217,-70174.347617
108.082599,-2516.700203,5921.647536,-69867.909418
108.085132,20577.725188,21021.848753,-64198.802732
108.087665,12435.459826,2812.782580,-68182.499322
108.090197,-2960.823768,11991.336260,-70021.128517
108.092730,-3552.988522,20873.807564,-68488.937521
108.095263,-1332.370696,24278.754898,-68335.718422
108.097796,10510.924376,9178.553681,-64658.460031
108.100329,2812.782580,23686.590144,-70940.443115
108.102862,2516.700203,6957.935855,-71093.662214
108.105395,8142.265362,-740.205942,-66956.746525
108.107928,12879.583391,13915.871710,-65730.993728
108.110461,-1924.535449,22058.137072,-70327.566716
108.112993,-6217.729913,17468.860231,-71093.662214
108.115526,17764.942608,13619.789333,-63739.145434
108.118059,10658.965565,12139.377449,-62973.049936
108.120592,3997.112087,-20133.601622,-69561.471218
108.123125,4737.318029,3849.070898,-68488.937521
108.125658,11843.295072,31088.649564,-65271.336430
108.128191,-4885.359217,3849.070898,-71706.538613
108.130724,9178.553681,-2516.700203,-69561.471218
108.133257,19245.354492,-7698.141797,-66650.308326
108.135789,-3404.947333,-4293.194464,-70327.566716
108.138322,-444.123565,5181.441594,-68488.937521
108.140855,12879.583391,2664.741391,-67416.403824
108.143388,-2220.617826,-5033.400406,-73545.167808
108.145921,444.123565,-5625.565159,-69867.909418
108.148454,7254.018232,11991.336260,-68182.499322
108.150987,10807.006753,6661.853478,-66956.746525
108.153520,-8734.430116,5329.482782,-71400.100414
108.156062,7402.059420,-4885.359217,-68182.499322
108.158604,9030.512492,-13175.665768,-69255.033019
108.161146,14211.954086,4885.359217,-66650.308326
108.163688,2960.823768,-444.123565,-71093.662214
108.166230,-1184.329507,6217.729913,-70021.128517
108.168772,296.082377,-2368.659014,-69561.471218
108.171315,12731.542202,1776.494261,-67263.184724
108.173857,16284.530724,12583.501014,-64505.240932
108.176399,-3552.988522,-9770.718434,-72779.072310
108.178941,8734.430116,-5477.523971,-69561.471218
108.181483,14359.995275,29608.237680,-63892.364533
108.184025,-6513.812290,20429.683999,-68335.718422
108.186567,-888.247130,2220.617826,-71400.100414
108.189110,22502.260637,6217.729913,-67416.403824
108.191652,0.000000,18653.189738,-71093.662214
108.194194,-592.164754,2368.659014,-67876.061123
108.196736,10658.965565,17320.819043,-66343.870127
108.199278,2220.617826,21021.848753,-68642.156621
108.201820,-888.247130,12435.459826,-68948.594820
108.204362,2812.782580,6809.894666,-70021.128517
108.206904,16432.571912,9622.677246,-67876.061123
108.209447,7698.141797,21614.013506,-65884.212828
108.211989,-6069.688724,19541.436869,-69867.909418
108.214531,6217.729913,14804.118840,-67109.965625
108.217073,11695.253884,8438.347739,-68182.499322
108.219615,-1036.288319,17912.983796,-70021.128517
108.222157,-3108.864956,26351.331535,-67876.061123
108.224699,1036.288319,12879.583391,-68948.594820
108.227241,17320.819043,5033.400406,-64352.021832
108.229784,-296.082377,9326.594869,-70327.566716
108.232326,1924.535449,-23094.425390,-70634.004916
108.234868,19985.560434,6069.688724,-67263.184724
108.237410,-3849.070898,28719.990550,-70940.443115
108.239952,-1036.288319,-8438.347739,-69867.909418
108.242494,8438.347739,-8290.306550,-68029.280222
108.245036,6661.853478,-12287.418637,-70327.566716
108.247579,4589.276840,2516.700203,-68182.499322
108.250121,7846.182985,20133.601622,-67109.965625
108.252663,5181.441594,5329.482782,-70174.347617
108.255205,-1036.288319,8142.265362,-71706.538613
108.257721,888.247130,-12139.377449,-67569.622924
108.260237,9178.553681,-8142.265362,-69101.813920
108.262753,6069.688724,10214.842000,-70327.566716
108.265268,11695.253884,-9622.677246,-67109.965625
108.267784,-3997.112087,9622.677246,-70174.347617
108.270300,11251.130318,5181.441594,-65730.993728
108.272816,5033.400406,6217.729913,-69408.252119
108.275332,-4589.276840,-592.164754,-71400.100414
108.277848,6809.894666,-1776.494261,-66497.089226
108.280364,19097.313304,-11695.253884,-67569.622924
108.282879,1184.329507,28571.949361,-69408.252119
108.285395,-8882.471304,21465.972318,-66650.308326
108.287911,9918.759623,-7698.141797,-66803.527426
108.290427,15692.365970,16876.695478,-69255.033019
108.292943,6365.771101,10362.883188,-67876.061123
108.295459,-592.164754,12879.583391,-68488.937521
108.297975,3997.112087,20873.807564,-68029.280222
108.300490,4737.318029,4737.318029,-69255.033019
108.303006,8290.306550,-888.247130,-64811.679131
108.305522,7254.018232,16580.613101,-69101.813920
108.308038,7994.224174,1628.453072,-69714.690318
108.310554,1332.370696,2516.700203,-70787.224015
108.313070,8586.388927,21910.095883,-65118.117330
108.315586,444.123565,26795.455100,-68642.156621
108.318101,4885.359217,5033.400406,-69408.252119
108.320617,3256.906145,8142.265362,-69867.909418
108.323133,5477.523971,9770.718434,-67722.842023
108.325649,8290.306550,14804.118840,-67109.965625
108.328165,-6069.688724,18949.272115,-71246.881314
108.330681,9326.594869,19393.395680,-66190.651027
108.333197,8734.430116,-17764.942608,-69714.690318
108.335712,4589.276840,9918.759623,-72625.853210
108.338228,6365.771101,25463.084405,-66497.089226
108.340744,2220.617826,-9474.636058,-68335.718422
108.343260,3701.029710,2368.659014,-69101.813920
108.345776,5921.647536,19393.395680,-67569.622924
108.348292,2220.617826,-21614.013506,-71400.100414
108.350808,-3997.112087,3849.070898,-70634.004916
108.353323,20429.683999,-740.205942,-63892.364533
108.355839,10214.842000,-18949.272115,-66803.527426
108.358368,444.123565,11695.253884,-69561.471218
108.360898,6069.688724,6957.935855,-68642.156621
108.363427,-296.082377,1184.329507,-72012.976812
108.365956,14952.160028,1628.453072,-66650.308326
108.368485,5033.400406,-7550.100608,-70021.128517
108.371014,148.041188,-12139.377449,-71400.100414
108.373543,11547.212695,8882.471304,-66956.746525
108.376073,-3108.864956,11695.253884,-69408.252119
108.378602,6957.935855,11991.336260,-71246.881314
108.381131,23686.590144,-17912.983796,-65884.212828
108.383660,3404.947333,25018.960840,-69867.909418
108.386189,-8142.265362,15840.407159,-67569.622924
108.388719,1776.494261,3404.947333,-67263.184724
108.391248,24722.878463,1480.411884,-66497.089226
108.393777,13767.830521,4145.153275,-68029.280222
108.396306,-13027.624579,14952.160028,-71553.319513
108.398835,6365.771101,22650.301825,-66343.870127
108.401364,9178.553681,18209.066173,-67263.184724
108.403894,5477.523971,-1332.370696,-67876.061123
108.406423,2664.741391,21762.054695,-69867.909418
108.408952,9178.553681,9770.718434,-68488.937521
108.411481,7254.018232,13027.624579,-66956.746525
108.414010,1924.535449,16432.571912,-68335.718422
108.416539,3997.112087,5329.482782,-68488.937521
108.419069,9326.594869,8142.265362,-68029.280222
108.421598,4737.318029,16728.654289,-68029.280222
108.424127,-2220.617826,24426.796086,-67876.061123
108.426656,5181.441594,8586.388927,-70021.128517
108.429185,3849.070898,17024.736666,-67569.622924
108.431714,5477.523971,17912.983796,-70021.128517
108.434244,15396.283594,-28423.908173,-67263.184724
108.436773,20281.642811,-20429.683999,-69408.252119
108.439302,-2368.659014,14656.077652,-70021.128517
108.441831,-5773.606348,15840.407159,-68182.499322
108.444360,15692.365970,-3701.029710,-66497.089226
108.446889,-1924.535449,-10066.800811,-73238.729609
108.449419,7846.182985,-22650.301825,-67416.403824
108.451948,5773.606348,-3108.864956,-70021.128517
108.454477,7698.141797,2220.617826,-69714.690318
108.457006,8586.388927,7994.224174,-66956.746525
108.459547,5477.523971,12287.418637,-67109.965625
108.462087,6513.812290,5921.647536,-70480.785816
108.464628,7994.224174,-5773.606348,-69408.252119
108.467168,2516.700203,6661.853478,-68795.375720
108.469708,9178.553681,7254.018232,-65884.212828
108.472249,5773.606348,-2368.659014,-70327.566716
108.474789,-1332.370696,4737.318029,-70327.566716
108.477330,6365.771101,148.041188,-66650.308326
108.479870,1924.535449,4589.276840,-69561.471218
108.482411,11695.253884,888.247130,-68795.375720
108.484951,7550.100608,18061.024985,-65118.117330
108.487492,-6365.771101,15840.407159,-68182.499322
108.490032,14063.912898,-148.041188,-69408.252119
108.492573,1332.370696,26647.413912,-72319.415011
108.495113,3256.906145,33309.267390,-66497.089226
108.497654,3701.029710,-7105.977043,-66343.870127
108.500194,9178.553681,-2516.700203,-69408.252119
108.502735,4885.359217,25759.166782,-67416.403824
108.505275,-1480.411884,20281.642811,-67569.622924
108.507816,4737.318029,7994.224174,-68948.594820
108.510356,11843.295072,18505.148550,-70634.004916
108.512896,6661.853478,2368.659014,-65118.117330
108.515437,0.000000,17320.819043,-67416.403824
108.517977,11399.171507,10510.924376,-68335.718422
108.520518,2072.576638,22650.301825,-68795.375720
108.523058,888.247130,16876.695478,-67109.965625
108.525599,2960.823768,10955.047942,-66190.651027
108.528139,12287.418637,-6661.853478,-68642.156621
108.530680,6069.688724,11991.336260,-68488.937521
108.533220,-3997.112087,7402.059420,-70174.347617
108.535761,22946.384202,-4145.153275,-66650.308326
108.538301,7698.141797,18505.148550,-70174.347617
108.540842,-8142.265362,4293.194464,-70021.128517
108.543382,6217.729913,-1480.411884,-66190.651027
108.545923,15248.242405,7846.182985,-66190.651027
108.548463,296.082377,-13175.665768,-71246.881314
108.551004,-8142.265362,-2812.782580,-72166.195912
108.553544,17912.983796,28127.825796,-64964.898230
108.556084,5625.565159,-10066.800811,-69561.471218
108.558625,-2220.617826,2072.576638,-71859.757712
108.561175,9918.759623,6069.688724,-65271.336430
108.563725,5033.400406,18949.272115,-69561.471218
108.566275,5773.606348,2368.659014,-69101.813920
108.568825,11991.336260,-10214.842000,-68029.280222
108.571375,-6661.853478,-6069.688724,-73545.167808
108.573925,5921.647536,-6957.935855,-69101.813920
108.576475,13915.871710,16876.695478,-66650.308326
108.579025,-3404.947333,11103.089130,-71400.100414
108.581575,-740.205942,-1184.329507,-70480.785816
108.584125,19837.519246,14359.995275,-64198.802732
108.586676,-10510.924376,8734.430116,-69867.909418
108.589226,-2220.617826,6957.935855,-71400.100414
108.591776,19393.395680,26499.372724,-67569.622924
108.594326,1924.535449,20429.683999,-68335.718422
108.596876,2516.700203,-1480.411884,-66343.870127
108.599426,9474.636058,6069.688724,-69255.033019
108.601976,4145.153275,30644.525999,-66956.746525
108.604526,1628.453072,2960.823768,-66343.870127
108.607076,8586.388927,-740.205942,-69561.471218
108.609626,8586.388927,5181.441594,-70174.347617
108.612176,6513.812290,36418.132346,-66956.746525
108.614726,-3701.029710,19985.560434,-66037.431928
108.617276,17320.819043,1332.370696,-65730.993728
108.619826,3404.947333,16136.489536,-71706.538613
108.622376,-4441.235652,8142.265362,-68642.156621
108.624926,12287.418637,9770.718434,-63432.707234
108.627476,-592.164754,10066.800811,-71706.538613
108.630026,13175.665768,12139.377449,-65424.555529
108.632577,-2368.659014,-7105.977043,-72625.853210
108.635127,8734.430116,2960.823768,-69714.690318
108.637677,8290.306550,16876.695478,-68335.718422
108.640227,5181.441594,-6217.729913,-67569.622924
108.642777,3997.112087,-8290.306550,-68182.499322
108.645327,11251.130318,5181.441594,-67109.965625
108.647877,4589.276840,-9622.677246,-69867.909418
108.650427,-7846.182985,-9326.594869,-74464.482406
108.652977,18209.066173,25907.207970,-63585.926334
108.655527,4441.235652,-17912.983796,-69101.813920
108.658077,5329.482782,-5329.482782,-68795.375720
108.660627,2664.741391,-7105.977043,-68795.375720
108.663184,10362.883188,-17320.819043,-69561.471218
108.665741,7846.182985,10510.924376,-67876.061123
108.668298,-1332.370696,10658.965565,-68335.718422
108.670855,12139.377449,21910.095883,-65424.555529
108.673412,-2812.782580,-17320.819043,-73851.606007
108.675969,4885.359217,-3404.947333,-68029.280222
108.678526,9030.512492,2516.700203,-68029.280222
108.681083,5033.400406,1332.370696,-70940.443115
108.683639,-148.041188,23834.631332,-69101.813920
108.686196,6809.894666,4441.235652,-62973.049936
108.688753,3997.112087,6217.729913,-70787.224015
108.691310,13767.830521,7105.977043,-69867.909418
108.693867,3256.906145,15840.407159,-68029.280222
108.696424,1036.288319,16136.489536,-69255.033019
108.698981,2960.823768,19393.395680,-70021.128517
108.701538,6365.771101,20577.725188,-64964.898230
108.704095,-1332.370696,-8882.471304,-70174.347617
108.706652,15100.201217,740.205942,-66803.527426
108.709209,7105.977043,16876.695478,-69101.813920
108.711766,888.247130,14063.912898,-67263.184724
108.714322,3849.070898,9030.512492,-66803.527426
108.716879,9918.759623,16728.654289,-68488.937521
108.719436,10362.883188,11103.089130,-66956.746525
108.721993,1184.329507,2960.823768,-66956.746525
108.724550,740.205942,5625.565159,-71400.100414
108.727107,3552.988522,21465.972318,-69714.690318
108.729664,7402.059420,17764.942608,-65730.993728
108.732221,4589.276840,-19541.436869,-73698.386908
108.734778,10510.924376,-12879.583391,-69561.471218
108.737335,18653.189738,6217.729913,-64811.679131
108.739892,-14952.160028,7846.182985,-73391.948708
108.742449,5625.565159,-4145.153275,-67263.184724
108.745006,15692.365970,11547.212695,-65424.555529
108.747562,12731.542202,6069.688724,-64352.021832
108.750119,2812.782580,12583.501014,-70787.224015
108.752676,-3997.112087,20725.766376,-72625.853210
108.755233,8586.388927,-25315.043216,-66650.308326
108.757790,11843.295072,-9474.636058,-66803.527426
108.760347,6513.812290,14656.077652,-71400.100414
108.762904,2960.823768,-10658.965565,-71553.319513
108.765467,1628.453072,12879.583391,-68335.718422
108.768030,1628.453072,-14211.954086,-70480.785816
108.770592,10510.924376,740.205942,-68182.499322
108.773155,4145.153275,2072.576638,-70327.566716
108.775718,6069.688724,7402.059420,-68948.594820
108.778281,3849.070898,2220.617826,-69867.909418
108.780843,9918.759623,21317.931130,-66190.651027
108.783406,-1036.288319,9770.718434,-67263.184724
108.785969,-2516.700203,-3701.029710,-70634.004916
108.788532,20429.683999,22502.260637,-67263.184724
108.791094,0.000000,22798.343014,-70634.004916
108.793657,1924.535449,1628.453072,-66037.431928
108.796220,7846.182985,5773.606348,-69867.909418
108.798783,9178.553681,32272.979071,-66956.746525
108.801345,-1332.370696,10510.924376,-69255.033019
108.803908,444.123565,35974.008781,-70174.347617
108.806471,12879.583391,29164.114115,-66497.089226
108.809034,5625.565159,-7698.141797,-69255.033019
108.811596,-2220.617826,2960.823768,-68488.937521
108.814159,9178.553681,18949.272115,-66650.308326
108.816722,14211.954086,7105.977043,-67876.061123
108.819285,-3701.029710,18653.189738,-71093.662214
108.821847,-5329.482782,17024.736666,-68029.280222
108.824410,6661.853478,5033.400406,-69561.471218
108.826973,13915.871710,7698.141797,-64964.898230
108.829536,5625.565159,-27831.743419,-69867.909418
108.832099,9770.718434,12879.583391,-72012.976812
108.834661,1184.329507,26055.249158,-68335.718422
108.837224,4589.276840,-9918.759623,-67109.965625
108.839787,592.164754,4885.359217,-68335.718422
108.842350,12879.583391,-8882.471304,-67722.842023
108.844912,3997.112087,-1924.535449,-68029.280222
108.847475,-1924.535449,444.123565,-72012.976812
108.850038,9178.553681,-20577.725188,-68795.375720
108.852601,3701.029710,7254.018232,-71246.881314
108.855163,7846.182985,13175.665768,-64811.679131
108.857726,-296.082377,-7846.182985,-69561.471218
108.860289,9178.553681,592.164754,-70174.347617
108.862852,11991.336260,3256.906145,-65730.993728
108.865414,-6809.894666,-4145.153275,-69408.252119
108.867982,10066.800811,14508.036463,-66190.651027
108.870550,4737.318029,11399.171507,-69867.909418
108.873118,6957.935855,-888.247130,-65884.212828
108.875686,3108.864956,-10807.006753,-70327.566716
108.878254,16284.530724,35233.802839,-66190.651027
108.880822,-5181.441594,21169.889941,-67876.061123
108.883389,1924.535449,6365.771101,-69255.033019
108.885957,8438.347739,29460.196492,-70480.785816
108.888525,13767.830521,-444.123565,-66497.089226
108.891093,-3701.029710,-9622.677246,-70787.224015
108.893661,-3997.112087,19393.395680,-71859.757712
108.896229,20429.683999,45448.644839,-62053.735338
108.898797,-7550.100608,19985.560434,-71400.100414
108.901364,9622.677246,-10362.883188,-68029.280222
108.903932,6365.771101,-3552.988522,-71400.100414
108.906500,3849.070898,-1628.453072,-68488.937521
108.909068,3997.112087,13915.871710,-66803.527426
108.911636,4589.276840,28127.825796,-67416.403824
108.914204,14359.995275,7846.182985,-66343.870127
108.916772,4293.194464,-5329.482782,-68182.499322
108.919340,-5033.400406,9474.636058,-70327.566716
108.921907,1184.329507,31680.814318,-70174.347617
108.924475,19393.395680,12731.542202,-64352.021832
108.927043,148.041188,-32272.979071,-71553.319513
108.929611,11103.089130,-14804.118840,-70634.004916
108.932179,13767.830521,-10510.924376,-65884.212828
108.934747,2368.659014,-2072.576638,-68948.594820
108.937315,296.082377,17764.942608,-69255.033019
108.939882,1036.288319,3108.864956,-69101.813920
108.942450,19097.313304,-3701.029710,-63892.364533
108.945018,-8586.388927,-18209.066173,-75690.235202
108.947586,13619.789333,-11251.130318,-66650.308326
108.950154,6365.771101,17320.819043,-68642.156621
108.952722,6365.771101,11399.171507,-67109.965625
108.955290,0.000000,-592.164754,-70480.785816
108.957857,5773.606348,15988.448347,-70634.004916
108.960425,7994.224174,1480.411884,-65577.774629
108.962993,-2812.782580,2368.659014,-70634.004916
108.965561,7698.141797,-15692.365970,-70634.004916
108.968129,12879.583391,12879.583391,-66956.746525
108.970701,-888.247130,18949.272115,-68948.594820
108.973272,2368.659014,296.082377,-71859.757712
108.975844,5773.606348,14359.995275,-66803.527426
108.978415,5773.606348,-4885.359217,-65271.336430
108.980987,-3997.112087,14063.912898,-71859.757712
108.983559,22650.301825,25611.125593,-65577.774629
108.986130,-296.082377,9918.759623,-67876.061123
108.988702,3404.947333,18209.066173,-65884.212828
108.991273,7254.018232,9918.759623,-69101.813920
108.993845,11843.295072,2960.823768,-66497.089226
108.996417,-4441.235652,30348.443622,-68335.718422
108.998988,9326.594869,10807.006753,-68488.937521
109.001560,10362.883188,6513.812290,-68948.594820
109.004131,-592.164754,26499.372724,-66650.308326
109.006703,1036.288319,1332.370696,-68029.280222
109.009275,16284.530724,11695.253884,-67416.403824
109.011846,11399.171507,17468.860231,-65577.774629
109.014418,-10510.924376,10214.842000,-70480.785816
109.016989,10807.006753,18209.066173,-67263.184724
109.019561,7105.977043,11547.212695,-68948.594820
109.022133,6069.688724,-23538.548956,-69408.252119
109.024704,6513.812290,10658.965565,-68488.937521
109.027276,11103.089130,19393.395680,-69867.909418
109.029847,2812.782580,-1776.494261,-68488.937521
109.032419,-1036.288319,-11843.295072,-70174.347617
109.034991,12287.418637,13619.789333,-66190.651027
109.037562,9178.553681,6809.894666,-67876.061123
109.040134,-2516.700203,-592.164754,-71093.662214
109.042705,-444.123565,16432.571912,-70174.347617
109.045277,14211.954086,-21614.013506,-66650.308326
109.047849,3849.070898,-1332.370696,-69561.471218
109.050420,3552.988522,11547.212695,-68795.375720
109.052992,11547.212695,-13619.789333,-68795.375720
109.055563,592.164754,7550.100608,-69714.690318
109.058135,10066.800811,-740.205942,-65884.212828
109.060707,-444.123565,4737.318029,-69561.471218
109.063278,11843.295072,-740.205942,-68182.499322
109.065850,11695.253884,3997.112087,-67109.965625
109.068422,-6217.729913,-1628.453072,-74311.263306
109.070993,14359.995275,28868.031738,-65271.336430
109.073566,-1184.329507,14359.995275,-66037.431928
109.076140,1924.535449,-11399.171507,-70940.443115
109.078715,10658.965565,30792.567187,-70327.566716
109.081289,8882.471304,20873.807564,-66190.651027
109.083864,-3552.988522,1628.453072,-68948.594820
109.086439,4293.194464,12879.583391,-69255.033019
109.089013,11547.212695,13175.665768,-65730.993728
109.091588,1184.329507,-7254.018232,-67722.842023
109.094163,9770.718434,-3108.864956,-67722.842023
109.096737,9030.512492,34345.555709,-69867.909418
109.099312,1036.288319,21465.972318,-67722.842023
109.101886,-1776.494261,-2072.576638,-67876.061123
109.104461,10214.842000,15692.365970,-68642.156621
109.107036,19097.313304,5921.647536,-64811.679131
109.109610,-2516.700203,7105.977043,-67722.842023
109.112185,3256.906145,9770.718434,-68182.499322
109.114760,6513.812290,21169.889941,-68335.718422
109.117334,3404.947333,-18801.230927,-70021.128517
109.119909,8290.306550,16876.695478,-68948.594820
109.122483,-444.123565,22798.343014,-70940.443115
109.125058,10362.883188,-8882.471304,-67569.622924
109.127633,740.205942,-13471.748144,-69867.909418
109.130207,6513.812290,5181.441594,-67263.184724
109.132782,740.205942,1480.411884,-70480.785816
109.135356,1184.329507,-7994.224174,-70480.785816
109.137931,6809.894666,-5033.400406,-69101.813920
109.140506,8734.430116,10658.965565,-67569.622924
109.143080,6809.894666,5181.441594,-66497.089226
109.145655,-5921.647536,-4885.359217,-70634.004916
109.148230,13619.789333,-11991.336260,-68642.156621
109.150804,15988.448347,-3849.070898,-65271.336430
109.153379,-5625.565159,10066.800811,-70480.785816
109.155953,3849.070898,15396.283594,-67876.061123
109.158528,3701.029710,-6365.771101,-71400.100414
109.161103,9178.553681,6217.729913,-66650.308326
109.163677,592.164754,-3849.070898,-70787.224015
109.166252,11695.253884,34641.638086,-65271.336430
109.168826,-7105.977043,26795.455100,-68029.280222
109.171401,12287.418637,-10214.842000,-67416.403824
109.173976,9918.759623,17024.736666,-71093.662214
109.176520,2220.617826,20725.766376,-70787.224015
109.179063,4293.194464,11103.089130,-64811.679131
109.181607,2220.617826,10510.924376,-71706.538613
109.184151,8882.471304,7105.977043,-67569.622924
109.186695,11547.212695,17764.942608,-65884.212828
109.189239,-3404.947333,12287.418637,-70327.566716
109.191783,6365.771101,30496.484810,-69408.252119
109.194327,8586.388927,-7698.141797,-67876.061123
109.196870,-1480.411884,592.164754,-68335.718422
109.199414,17468.860231,18653.189738,-65118.117330
109.201958,12583.501014,-2664.741391,-67722.842023
109.204502,-9178.553681,18801.230927,-71400.100414
109.207046,4589.276840,20873.807564,-65884.212828
109.209590,11695.253884,14359.995275,-67109.965625
109.212134,6661.853478,-27239.578666,-71246.881314
109.214677,11695.253884,-10510.924376,-68795.375720
109.217221,1480.411884,27979.784608,-69561.471218
109.219765,2960.823768,444.123565,-69867.909418
109.222309,-2812.782580,-888.247130,-69867.909418
109.224853,1776.494261,4885.359217,-68182.499322
109.227397,12583.501014,-9474.636058,-65884.212828
109.229941,-740.205942,-18505.148550,-74464.482406
109.232484,11991.336260,-2072.576638,-67569.622924
109.235028,7105.977043,3404.947333,-68795.375720
109.237572,2368.659014,9474.636058,-69101.813920
109.240116,2812.782580,14656.077652,-69255.033019
109.242660,5625.565159,-2664.741391,-70327.566716
109.245204,2960.823768,-17616.901420,-70787.224015
109.247748,1628.453072,4293.194464,-68948.594820
109.250291,12879.583391,6069.688724,-66343.870127
109.252835,6809.894666,-4441.235652,-69714.690318
109.255379,2368.659014,-3404.947333,-70634.004916
109.257923,9030.512492,22058.137072,-68642.156621
109.260467,-2516.700203,18801.230927,-68642.156621
109.263011,2220.617826,4737.318029,-64964.898230
109.265555,16136.489536,-888.247130,-69408.252119
109.268099,1480.411884,22502.260637,-70940.443115
109.270642,3108.864956,14656.077652,-67109.965625
109.273186,5181.441594,4885.359217,-67109.965625
109.275730,1184.329507,11103.089130,-70940.443115
109.278282,7846.182985,-18357.107362,-66803.527426
109.280834,888.247130,8882.471304,-70174.347617
109.283386,14359.995275,21614.013506,-65730.993728
109.285938,5625.565159,-4441.235652,-69714.690318
109.288490,3701.029710,14804.118840,-66956.746525
109.291042,7550.100608,11399.171507,-65730.993728
109.293594,13323.706956,18653.189738,-67876.061123
109.296146,-3552.988522,17172.777854,-69867.909418
109.298698,2368.659014,888.247130,-67416.403824
109.301250,13323.706956,18209.066173,-66956.746525
109.303801,3404.947333,740.205942,-70327.566716
109.306353,4293.194464,-1332.370696,-69101.813920
109.308905,3108.864956,13619.789333,-70480.785816
109.311457,18801.230927,-2812.782580,-65271.336430
109.314009,-7254.018232,-14952.160028,-74158.044206
109.316561,6217.729913,25907.207970,-64505.240932
109.319113,3701.029710,296.082377,-68182.499322
109.321665,3404.947333,-24722.878463,-70787.224015
109.324217,7550.100608,10066.800811,-67876.061123
109.326769,12287.418637,-19689.478057,-67722.842023
109.329321,7698.141797,-10807.006753,-70174.347617
109.331873,6661.853478,18801.230927,-66956.746525
109.334425,7846.182985,-15100.201217,-70174.347617
109.336977,-7846.182985,-3701.029710,-72012.976812
109.339529,22206.178260,8734.430116,-60981.201641
109.342081,-7550.100608,3108.864956,-74770.920605
109.344633,7254.018232,-11251.130318,-68795.375720
109.347184,12435.459826,9326.594869,-66343.870127
109.349736,-3849.070898,7846.182985,-73085.510509
109.352288,10658.965565,24426.796086,-65730.993728
109.354840,-148.041188,2664.741391,-67416.403824
109.357392,8438.347739,-6069.688724,-70634.004916
109.359951,5181.441594,36270.091158,-70021.128517
109.362510,4589.276840,18357.107362,-66497.089226
109.365068,-1036.288319,9622.677246,-68488.937521
109.367627,3552.988522,17172.777854,-69561.471218
109.370186,14211.954086,19097.313304,-65118.117330
109.372745,-2960.823768,-5033.400406,-70940.443115
109.375303,9178.553681,17616.901420,-66956.746525
109.377862,3552.988522,25611.125593,-70327.566716
109.380421,1036.288319,26647.413912,-66650.308326
109.382980,6513.812290,-5773.606348,-67263.184724
109.385538,7254.018232,29756.278868,-69101.813920
109.388097,9622.677246,-10510.924376,-65118.117330
109.390656,-1332.370696,8438.347739,-69255.033019
109.393215,-1924.535449,34641.638086,-69101.813920
109.395773,11547.212695,4737.318029,-66956.746525
109.398332,3108.864956,-6365.771101,-71400.100414
109.400891,7846.182985,-7698.141797,-69714.690318
109.403450,2960.823768,4589.276840,-68948.594820
109.406008,8586.388927,-1776.494261,-69101.813920
109.408567,10362.883188,13323.706956,-64964.898230
109.411126,-6217.729913,4737.318029,-69561.471218
109.413685,12139.377449,-6365.771101,-68335.718422
109.416243,4589.276840,-14804.118840,-72319.415011
109.418802,-1036.288319,12583.501014,-69255.033019
109.421361,8882.471304,13767.830521,-67109.965625
109.423920,11399.171507,-32865.143825,-68335.718422
109.426478,5033.400406,-2220.617826,-72319.415011
109.429037,4293.194464,24278.754898,-67876.061123
109.431596,4589.276840,-10510.924376,-66650.308326
109.434155,3108.864956,-6069.688724,-71706.538613
109.436713,4293.194464,1776.494261,-70174.347617
109.439272,12731.542202,5625.565159,-65577.774629
109.441831,-592.164754,1628.453072,-72472.634111
109.444390,4441.235652,25167.002028,-68182.499322
109.446948,-888.247130,12879.583391,-65730.993728
109.449507,9474.636058,5033.400406,-68182.499322
109.452066,2072.576638,31680.814318,-71706.538613
109.454625,11399.171507,15396.283594,-65424.555529
109.457183,-3256.906145,8142.265362,-70021.128517
109.459742,-2516.700203,19837.519246,-72319.415011
109.462306,7402.059420,13915.871710,-67263.184724
109.464869,9326.594869,-12435.459826,-66650.308326
109.467433,6661.853478,-4441.235652,-68795.375720
109.469997,7846.182985,33605.349767,-70174.347617
109.472560,-2664.741391,19689.478057,-68182.499322
109.475124,2812.782580,5477.523971,-67569.622924
109.477688,13471.748144,19689.478057,-69255.033019
109.480251,296.082377,4737.318029,-69101.813920
109.482815,3997.112087,9474.636058,-66803.527426
109.485378,8586.388927,28571.949361,-66497.089226
109.487942,6661.853478,-11695.253884,-70940.443115
109.490506,6809.894666,4293.194464,-69561.471218
109.493069,14804.118840,-6513.812290,-65577.774629
109.495633,2664.741391,-5625.565159,-70480.785816
109.498197,-1924.535449,16432.571912,-70174.347617
109.500760,16432.571912,14508.036463,-63432.707234
109.503324,-8734.430116,-12879.583391,-71246.881314
109.505888,15840.407159,-9474.636058,-65118.117330
109.508451,4737.318029,21021.848753,-69714.690318
109.511015,1776.494261,13027.624579,-67109.965625
109.513578,11991.336260,21169.889941,-66343.870127
109.516142,-4145.153275,-13175.665768,-74311.263306
109.518706,9918.759623,-7105.977043,-68335.718422
109.521269,8290.306550,1776.494261,-65730.993728
109.523833,-2220.617826,1184.329507,-70480.785816
109.526397,4441.235652,15840.407159,-68948.594820
109.528960,5625.565159,444.123565,-66803.527426
109.531524,11399.171507,-9770.718434,-67876.061123
109.534087,8734.430116,15840.407159,-68948.594820
109.536651,-3256.906145,18801.230927,-68335.718422
109.539215,-444.123565,1628.453072,-67109.965625
109.541778,22946.384202,3404.947333,-62360.173537
109.544342,14804.118840,9030.512492,-70327.566716
109.546906,-23686.590144,27831.743419,-75230.577904
109.549469,25759.166782,20577.725188,-58529.696047
109.552033,-1332.370696,24870.919651,-72012.976812
109.554597,5477.523971,-2220.617826,-68642.156621
109.557160,6365.771101,-5773.606348,-66650.308326
109.559724,8290.306550,10658.965565,-68948.594820
109.562287,10955.047942,17912.983796,-67109.965625
109.564855,-3997.112087,11103.089130,-70174.347617
109.567423,3849.070898,9918.759623,-68029.280222
109.569990,20873.807564,9770.718434,-67569.622924
109.572558,-16580.613101,33309.267390,-72625.853210
109.575126,7254.018232,8882.471304,-63739.145434
109.577693,14211.954086,9326.594869,-67109.965625
109.580261,444.123565,-17912.983796,-74311.263306
109.582829,11399.171507,1184.329507,-67109.965625
109.585397,1776.494261,20873.807564,-66956.746525
109.587964,11399.171507,-9770.718434,-69561.471218
109.590532,5921.647536,2220.617826,-67722.842023
109.593100,740.205942,12731.542202,-68182.499322
109.595667,-1480.411884,-17616.901420,-70174.347617
109.598235,10066.800811,-12879.583391,-68795.375720
109.600803,15396.283594,1332.370696,-66190.651027
109.603370,-7550.100608,1924.535449,-72012.976812
109.605938,7254.018232,-8882.471304,-69255.033019
109.608506,10807.006753,-5625.565159,-69714.690318
109.611073,14063.912898,17616.901420,-65577.774629
109.613641,-5329.482782,-2220.617826,-71246.881314
109.616209,-740.205942,-17764.942608,-75383.797003
109.618776,12583.501014,-9030.512492,-68182.499322
109.621344,6809.894666,6365.771101,-65730.993728
109.623912,10658.965565,-1480.411884,-70480.785816
109.626479,-5477.523971,46188.850781,-70021.128517
109.629047,6513.812290,8438.347739,-62973.049936
109.631615,-148.041188,2516.700203,-70174.347617
