#time,accel_x,accel_y,accel_z
263.994170,8142.265362,6365.771101,-69255.033019
263.996754,8586.388927,7254.018232,-67263.184724
263.999338,3256.906145,5625.565159,-70021.128517
264.001923,5329.482782,4737.318029,-69714.690318
264.004507,8142.265362,6957.935855,-68029.280222
264.007091,1924.535449,5625.565159,-69408.252119
264.009675,5181.441594,5773.606348,-69408.252119
264.012259,9030.512492,6365.771101,-67876.061123
264.014843,1036.288319,5033.400406,-70021.128517
264.017427,5921.647536,4293.194464,-69101.813920
264.020012,5329.482782,6513.812290,-70021.128517
264.022596,1480.411884,5773.606348,-70634.004916
264.025180,7402.059420,6957.935855,-67722.842023
264.027764,10214.842000,9622.677246,-68335.718422
264.030348,4145.153275,6069.688724,-69101.813920
264.032932,-592.164754,4145.153275,-70940.443115
264.035517,2516.700203,5477.523971,-70480.785816
264.038101,11251.130318,7402.059420,-66650.308326
264.040685,9622.677246,7550.100608,-66803.527426
264.043269,5625.565159,7550.100608,-69561.471218
264.045853,4293.194464,5477.523971,-70174.347617
264.048437,3849.070898,7402.059420,-68795.375720
264.051021,3404.947333,4589.276840,-70174.347617
264.053606,6217.729913,3997.112087,-68948.594820
264.056190,3552.988522,7846.182985,-69867.909418
264.058755,4589.276840,5329.482782,-68948.594820
264.061320,6661.853478,5773.606348,-69101.813920
264.063885,3701.029710,5921.647536,-70327.566716
264.066450,3256.906145,5773.606348,-69408.252119
264.069015,4737.318029,6217.729913,-70021.128517
264.071580,-19985.560434,1776.494261,-76456.330700
264.074145,28719.990550,12731.542202,-60061.887043
264.076710,5477.523971,10362.883188,-68948.594820
264.079275,-31532.773129,296.082377,-76609.549800
264.081840,17468.860231,10658.965565,-64811.679131
264.084405,18061.024985,12583.501014,-68029.280222
264.086970,-2220.617826,2072.576638,-72779.072310
264.089535,-15396.283594,18209.066173,-69714.690318
264.092100,-148.041188,10066.800811,-67263.184724
264.094665,-5329.482782,-7846.182985,-75230.577904
264.097230,35529.885216,6661.853478,-65118.117330
264.099795,34197.514520,12287.418637,-70940.443115
264.102360,5477.523971,2812.782580,-68182.499322
264.104925,-12583.501014,7550.100608,-67416.403824
264.107490,-13915.871710,3552.988522,-68029.280222
264.110055,3256.906145,5033.400406,-68795.375720
264.112620,25759.166782,5181.441594,-69714.690318
264.115185,15248.242405,7254.018232,-68335.718422
264.117750,4589.276840,5477.523971,-67722.842023
264.120315,-3108.864956,4145.153275,-72625.853210
264.122880,13915.871710,1776.494261,-71706.538613
264.125445,28571.949361,16876.695478,-64198.802732
264.128010,-3997.112087,-4145.153275,-72012.976812
264.130575,-9178.553681,2812.782580,-71553.319513
264.133140,6069.688724,14063.912898,-66803.527426
264.135705,32717.102636,12435.459826,-66190.651027
264.138270,-444.123565,1924.535449,-71859.757712
264.140836,-5033.400406,7994.224174,-68029.280222
264.143401,23686.590144,12139.377449,-66803.527426
264.145966,18949.272115,3552.988522,-68335.718422
264.148531,-7105.977043,1776.494261,-74924.139704
264.151096,5625.565159,10362.883188,-67416.403824
264.153661,19393.395680,10807.006753,-62053.735338
264.156226,0.000000,4293.194464,-75077.358804
264.158791,11695.253884,5625.565159,-67263.184724
264.161344,4145.153275,6957.935855,-69714.690318
264.163897,1628.453072,148.041188,-68642.156621
264.166451,11843.295072,8438.347739,-65118.117330
264.169004,3849.070898,5773.606348,-71093.662214
264.171557,17320.819043,9030.512492,-69714.690318
264.174111,14656.077652,12879.583391,-67569.622924
264.176664,3701.029710,5033.400406,-70634.004916
264.179217,-13767.830521,2368.659014,-67722.842023
264.181771,-33901.432144,2368.659014,-68182.499322
264.184324,28423.908173,7846.182985,-71246.881314
264.186877,75649.047272,6957.935855,-64964.898230
264.189431,-41155.450375,-3701.029710,-69714.690318
264.191984,-37602.461854,7402.059420,-72166.195912
264.194537,27831.743419,5033.400406,-69408.252119
264.197091,48409.468607,5477.523971,-67416.403824
264.199644,-2072.576638,12583.501014,-71553.319513
264.202197,-30940.608376,-1776.494261,-66037.431928
264.204751,-17320.819043,5329.482782,-74770.920605
264.207304,36122.049970,9474.636058,-65271.336430
264.209857,18357.107362,3849.070898,-75230.577904
264.212411,-4737.318029,6365.771101,-66803.527426
264.214964,-19837.519246,6513.812290,-68029.280222
264.217517,3997.112087,-6069.688724,-72625.853210
264.220071,28868.031738,12879.583391,-67722.842023
264.222624,17172.777854,20281.642811,-66037.431928
264.225178,-37306.379477,-5921.647536,-74770.920605
264.227731,-6661.853478,-2072.576638,-70940.443115
264.230284,34197.514520,16136.489536,-62206.954438
264.232838,-1480.411884,-2664.741391,-76762.768900
264.235391,-888.247130,3108.864956,-67722.842023
264.237944,12731.542202,10510.924376,-64658.460031
264.240498,1628.453072,1924.535449,-74464.482406
264.243051,-10658.965565,5329.482782,-70940.443115
264.245604,2072.576638,3997.112087,-66497.089226
264.248158,-1332.370696,-1332.370696,-70021.128517
264.250711,-4441.235652,3404.947333,-73238.729609
264.253264,9030.512492,9622.677246,-66956.746525
264.255818,1628.453072,12583.501014,-71706.538613
264.258371,3997.112087,4293.194464,-67876.061123
264.260924,-8882.471304,3404.947333,-72625.853210
264.263467,-3404.947333,10807.006753,-68335.718422
264.266010,6513.812290,4589.276840,-67876.061123
264.268552,6513.812290,6809.894666,-71859.757712
264.271095,-2812.782580,6217.729913,-69255.033019
264.273638,10214.842000,3997.112087,-67722.842023
264.276180,-6217.729913,4441.235652,-69255.033019
264.278723,-888.247130,9918.759623,-75230.577904
264.281266,5329.482782,7698.141797,-70787.224015
264.283808,-19245.354492,3552.988522,-69101.813920
264.286351,47965.345042,9178.553681,-66037.431928
264.288894,6513.812290,-1924.535449,-75537.016103
264.291436,-13175.665768,24278.754898,-62973.049936
264.293979,-31384.731941,5625.565159,-72625.853210
264.296522,38934.832549,5329.482782,-66037.431928
264.299064,50482.045244,8290.306550,-76149.892501
264.301607,10066.800811,148.041188,-63432.707234
264.304150,-33309.267390,10214.842000,-67876.061123
264.306692,-740.205942,16432.571912,-66956.746525
264.309235,37750.503042,-4589.276840,-71859.757712
264.311778,46336.891969,3997.112087,-69867.909418
264.314320,-13323.706956,11399.171507,-66956.746525
264.316863,-12435.459826,-1628.453072,-67109.965625
264.319406,7994.224174,12731.542202,-66650.308326
264.321948,16580.613101,-2220.617826,-74924.139704
264.324491,21910.095883,-1776.494261,-68335.718422
264.327034,-1332.370696,22206.178260,-60981.201641
264.329576,-9178.553681,6069.688724,-73391.948708
264.332119,11991.336260,-5773.606348,-74158.044206
264.334662,2664.741391,6957.935855,-70940.443115
264.337204,2812.782580,8438.347739,-68795.375720
264.339747,6513.812290,6069.688724,-71706.538613
264.342290,25167.002028,7254.018232,-63432.707234
264.344833,444.123565,-3997.112087,-74004.825107
264.347375,-740.205942,-7698.141797,-72166.195912
264.349918,32717.102636,23390.507767,-60827.982541
264.352461,-3256.906145,8586.388927,-73851.606007
264.355003,6217.729913,3701.029710,-70174.347617
264.357546,16136.489536,15544.324782,-64505.240932
264.360089,5921.647536,13175.665768,-68029.280222
264.362631,8882.471304,296.082377,-67876.061123
264.365167,20725.766376,7105.977043,-69408.252119
264.367703,20873.807564,6661.853478,-69408.252119
264.370240,16432.571912,10510.924376,-68948.594820
264.372776,-13027.624579,5033.400406,-68182.499322
264.375312,-46188.850781,4589.276840,-67722.842023
264.377848,23538.548956,8438.347739,-70634.004916
264.380384,93710.072257,3256.906145,-64811.679131
264.382920,-48261.427418,-8290.306550,-72625.853210
264.385456,-32421.020260,-3256.906145,-74770.920605
264.387992,27831.743419,-2960.823768,-70174.347617
264.390528,44116.274143,10362.883188,-69561.471218
264.393065,1924.535449,6069.688724,-70021.128517
264.395601,-31236.690752,2072.576638,-66650.308326
264.398137,-30348.443622,8290.306550,-72472.634111
264.400673,32124.937883,2664.741391,-66190.651027
264.403209,27387.619854,8142.265362,-74311.263306
264.405745,2812.782580,2812.782580,-65884.212828
264.408281,-32717.102636,-1332.370696,-72779.072310
264.410817,888.247130,-740.205942,-68488.937521
264.413353,39526.997303,17616.901420,-65577.774629
264.415890,-3701.029710,-740.205942,-75537.016103
264.418426,-10362.883188,-2368.659014,-65577.774629
264.420962,-2960.823768,20873.807564,-65577.774629
264.423498,13767.830521,4441.235652,-68948.594820
264.426034,10510.924376,-8586.388927,-74924.139704
264.428570,-1924.535449,9770.718434,-66650.308326
264.431106,4145.153275,16876.695478,-65577.774629
264.433642,19541.436869,8290.306550,-67416.403824
264.436178,-18801.230927,-4293.194464,-75843.454302
264.438715,-27091.537477,2072.576638,-75383.797003
264.441251,24426.796086,15100.201217,-57303.943250
264.443787,-9474.636058,10955.047942,-77988.521696
264.446323,14952.160028,-888.247130,-66956.746525
264.448859,6661.853478,11547.212695,-67722.842023
264.451395,-10362.883188,3701.029710,-73085.510509
264.453931,296.082377,2072.576638,-67722.842023
264.456467,1924.535449,6365.771101,-72932.291410
264.459003,5625.565159,9918.759623,-69101.813920
264.461540,14952.160028,3997.112087,-66343.870127
264.464076,-12287.418637,-1776.494261,-70787.224015
264.466609,3997.112087,3552.988522,-67109.965625
264.469142,12879.583391,-3997.112087,-71400.100414
264.471676,-740.205942,3849.070898,-66037.431928
264.474209,-9178.553681,9326.594869,-72472.634111
264.476742,47669.262665,10955.047942,-69408.252119
264.479276,-10066.800811,-2072.576638,-67263.184724
264.481809,-34345.555709,15248.242405,-70480.785816
264.484342,8290.306550,4885.359217,-67722.842023
264.486876,56551.733969,12435.459826,-67876.061123
264.489409,20133.601622,9918.759623,-70021.128517
264.491942,-31384.731941,10807.006753,-66803.527426
264.494475,-20429.683999,6217.729913,-70634.004916
264.497009,15100.201217,10658.965565,-68795.375720
264.499542,52406.580694,5181.441594,-71553.319513
264.502075,7402.059420,5921.647536,-70787.224015
264.504609,-20133.601622,1332.370696,-68642.156621
264.507142,-2072.576638,5773.606348,-68795.375720
264.509675,22354.219448,11399.171507,-67416.403824
264.512209,29608.237680,5773.606348,-70634.004916
264.514742,-5477.523971,4293.194464,-69408.252119
264.517275,-20429.683999,9326.594869,-73238.729609
264.519809,24426.796086,3997.112087,-69255.033019
264.522342,15692.365970,6069.688724,-70940.443115
264.524875,1924.535449,9770.718434,-67263.184724
264.527409,4441.235652,2220.617826,-69867.909418
264.529942,22354.219448,7402.059420,-66037.431928
264.532475,10807.006753,-444.123565,-70787.224015
264.535008,1776.494261,10510.924376,-72779.072310
264.537542,15248.242405,1036.288319,-62819.830836
264.540075,2664.741391,-2664.741391,-72932.291410
264.542608,14508.036463,6513.812290,-67569.622924
264.545142,-296.082377,7698.141797,-70174.347617
264.547675,6217.729913,2960.823768,-65424.555529
264.550208,9030.512492,10362.883188,-71400.100414
264.552742,28275.866984,15988.448347,-67569.622924
264.555275,23982.672521,14508.036463,-67109.965625
264.557808,2220.617826,2516.700203,-68182.499322
264.560342,-44708.438897,-1628.453072,-68335.718422
264.562875,-5033.400406,14656.077652,-69714.690318
264.565408,86752.136402,8586.388927,-66037.431928
264.567937,-43079.985824,-5181.441594,-71859.757712
264.570466,-33605.349767,12287.418637,-70021.128517
264.572994,12435.459826,-4589.276840,-71859.757712
264.575523,42339.779882,5921.647536,-68948.594820
264.578052,16876.695478,15248.242405,-69867.909418
264.580581,-32124.937883,0.000000,-66803.527426
264.583109,-31828.855506,4145.153275,-73545.167808
264.585638,20725.766376,15100.201217,-63279.488135
264.588167,29312.155303,3404.947333,-73545.167808
264.590696,-296.082377,4589.276840,-72472.634111
264.593225,-19393.395680,10510.924376,-66650.308326
264.595753,-7994.224174,3552.988522,-70634.004916
264.598282,27683.702231,6957.935855,-68642.156621
264.600811,15988.448347,9178.553681,-69561.471218
264.603340,-6365.771101,20133.601622,-66190.651027
264.605868,-17912.983796,-3552.988522,-70480.785816
264.608397,2220.617826,7846.182985,-69255.033019
264.610926,26499.372724,8290.306550,-70327.566716
264.613455,3552.988522,8586.388927,-67109.965625
264.615983,-8734.430116,13619.789333,-64811.679131
264.618512,-444.123565,9178.553681,-73391.948708
264.621041,-9622.677246,-9474.636058,-75996.673402
264.623570,-10362.883188,1480.411884,-73085.510509
264.626098,20133.601622,5625.565159,-60215.106143
264.628627,-9030.512492,15396.283594,-72779.072310
264.631156,2072.576638,-592.164754,-72166.195912
264.633685,10066.800811,7698.141797,-65118.117330
264.636213,5921.647536,10066.800811,-67876.061123
264.638742,-12287.418637,3256.906145,-75537.016103
264.641271,4885.359217,10214.842000,-67569.622924
264.643800,17024.736666,7994.224174,-67416.403824
264.646328,-8142.265362,-1332.370696,-72625.853210
264.648857,-10214.842000,-1924.535449,-74004.825107
264.651386,11399.171507,19245.354492,-68488.937521
264.653915,10955.047942,-11103.089130,-61900.516238
264.656443,-4885.359217,6809.894666,-74617.701505
264.658972,55367.404462,13323.706956,-68948.594820
264.661501,-19985.560434,-7254.018232,-66803.527426
264.664030,-35085.761651,13471.748144,-70480.785816
264.666558,-2220.617826,6069.688724,-73238.729609
264.669086,75352.964896,6513.812290,-62513.392637
264.671613,33013.185013,8290.306550,-70787.224015
264.674141,-29312.155303,12879.583391,-65118.117330
264.676669,-23982.672521,6957.935855,-71246.881314
264.679196,21910.095883,11103.089130,-69408.252119
264.681724,58032.145853,19985.560434,-68948.594820
264.684251,1776.494261,9326.594869,-70174.347617
264.686779,-18061.024985,5181.441594,-66650.308326
264.689306,-8734.430116,17172.777854,-68335.718422
264.691834,22946.384202,-3997.112087,-68948.594820
264.694361,23242.466579,2960.823768,-70634.004916
264.696889,-6661.853478,8734.430116,-66956.746525
264.699416,-18505.148550,3256.906145,-76762.768900
264.701944,22650.301825,6809.894666,-65884.212828
264.704472,15692.365970,-3849.070898,-76149.892501
264.706999,22946.384202,20133.601622,-60674.763442
264.709527,-2664.741391,2220.617826,-70174.347617
264.712054,-11103.089130,-2516.700203,-76762.768900
264.714582,35677.926404,11251.130318,-60674.763442
264.717109,17468.860231,9770.718434,-68335.718422
264.719637,-2368.659014,4145.153275,-68029.280222
264.722164,-3552.988522,3997.112087,-72166.195912
264.724692,17172.777854,17764.942608,-65271.336430
264.727219,21614.013506,-148.041188,-66037.431928
264.729747,13471.748144,-2812.782580,-74004.825107
264.732274,31828.855506,23982.672521,-63892.364533
264.734802,-3108.864956,-9770.718434,-73391.948708
264.737330,-10807.006753,148.041188,-66190.651027
264.739857,-34049.473332,8586.388927,-69255.033019
264.742385,22502.260637,3552.988522,-70940.443115
264.744912,72392.141128,5033.400406,-63585.926334
264.747440,-45892.768404,4737.318029,-69714.690318
264.749967,-31532.773129,3256.906145,-75077.358804
264.752495,37454.420665,5181.441594,-66803.527426
264.755022,40415.244433,9030.512492,-68642.156621
264.757550,-14952.160028,1184.329507,-73085.510509
264.760077,-30496.484810,4589.276840,-62819.830836
264.762605,-19689.478057,8882.471304,-75383.797003
264.765133,33901.432144,10362.883188,-65118.117330
264.767660,24278.754898,7550.100608,-71246.881314
264.770098,-3997.112087,11843.295072,-67722.842023
264.772536,-26943.496289,7846.182985,-70174.347617
264.774974,-7846.182985,-1036.288319,-72012.976812
264.777412,37010.297100,4885.359217,-72625.853210
264.779851,14656.077652,10807.006753,-63892.364533
264.782289,-20281.642811,592.164754,-70480.785816
264.784727,-26055.249158,4737.318029,-75996.673402
264.787165,30792.567187,11991.336260,-60521.544342
264.789603,16284.530724,12139.377449,-72625.853210
264.792041,-10214.842000,9474.636058,-65118.117330
264.794479,-8586.388927,-6069.688724,-73085.510509
264.796917,9770.718434,7550.100608,-71246.881314
264.799355,10510.924376,6809.894666,-66497.089226
264.801793,-7254.018232,5625.565159,-71246.881314
264.804232,-10658.965565,2960.823768,-69561.471218
264.806670,2220.617826,5033.400406,-71093.662214
264.809108,4145.153275,12287.418637,-67722.842023
264.811546,11251.130318,4885.359217,-70480.785816
264.813984,-1628.453072,11103.089130,-70787.224015
264.816422,-6069.688724,0.000000,-72166.195912
264.818860,14211.954086,6069.688724,-69561.471218
264.821298,444.123565,13471.748144,-64198.802732
264.823736,-888.247130,0.000000,-71246.881314
264.826174,-2960.823768,9474.636058,-71706.538613
264.828612,-22650.301825,-1480.411884,-74311.263306
264.831051,67210.699534,17616.901420,-62513.392637
264.833489,5477.523971,-3849.070898,-72932.291410
264.835927,-18801.230927,9326.594869,-61440.858940
264.838365,-26943.496289,13767.830521,-75537.016103
264.840803,27831.743419,1036.288319,-68642.156621
264.843241,67062.658345,8290.306550,-67109.965625
264.845679,740.205942,11399.171507,-67263.184724
264.848117,-31088.649564,2812.782580,-66343.870127
264.850555,-10362.883188,1776.494261,-69867.909418
264.852993,27683.702231,9622.677246,-69408.252119
264.855432,33457.308578,8438.347739,-73085.510509
264.857870,6069.688724,6217.729913,-63739.145434
264.860308,-24278.754898,4737.318029,-71400.100414
264.862746,3849.070898,10066.800811,-68029.280222
264.865184,34197.514520,13767.830521,-67876.061123
264.867648,-5625.565159,-5181.441594,-73238.729609
264.870113,-8290.306550,6069.688724,-68335.718422
264.872577,-4737.318029,11251.130318,-71400.100414
264.875042,31828.855506,5329.482782,-67109.965625
264.877506,24426.796086,13027.624579,-69561.471218
264.879971,13175.665768,444.123565,-62513.392637
264.882435,-8882.471304,-1776.494261,-76456.330700
264.884900,19245.354492,13175.665768,-64505.240932
264.887364,19393.395680,5625.565159,-68029.280222
264.889829,-1480.411884,1776.494261,-71093.662214
264.892293,4441.235652,10955.047942,-67876.061123
264.894758,9326.594869,10214.842000,-66803.527426
264.897222,10066.800811,1480.411884,-69101.813920
264.899687,12879.583391,1036.288319,-75843.454302
264.902151,24870.919651,14952.160028,-64811.679131
264.904615,14804.118840,19985.560434,-67876.061123
264.907080,-26647.413912,7254.018232,-68182.499322
264.909544,-5921.647536,-2812.782580,-70021.128517
264.912009,65582.246461,15396.283594,-69714.690318
264.914473,-7698.141797,1628.453072,-67876.061123
264.916938,-40711.326810,7846.182985,-65730.993728
264.919402,-4293.194464,5181.441594,-77069.207099
264.921867,43524.109390,6661.853478,-64964.898230
264.924331,26943.496289,11991.336260,-72166.195912
264.926796,-23982.672521,1480.411884,-68948.594820
264.929260,-23242.466579,3997.112087,-66803.527426
264.931725,7550.100608,8438.347739,-70021.128517
264.934189,30496.484810,12731.542202,-70634.004916
264.936654,888.247130,3849.070898,-71553.319513
264.939118,-9030.512492,5329.482782,-65271.336430
264.941583,-17024.736666,14804.118840,-72166.195912
264.944047,15840.407159,296.082377,-69101.813920
264.946530,23982.672521,5329.482782,-70940.443115
264.949012,-9770.718434,-1036.288319,-71553.319513
264.951494,-13471.748144,3552.988522,-68029.280222
264.953977,592.164754,10658.965565,-68029.280222
264.956459,19837.519246,3404.947333,-70940.443115
264.958942,-592.164754,13471.748144,-64045.583633
264.961424,-4885.359217,7105.977043,-68335.718422
264.963907,-13915.871710,1480.411884,-78294.959896
264.966389,16728.654289,6069.688724,-66497.089226
264.968872,12287.418637,6513.812290,-67569.622924
264.971354,-16432.571912,6217.729913,-69714.690318
264.973837,-9178.553681,3997.112087,-71093.662214
264.976319,11547.212695,5181.441594,-65424.555529
264.978802,4293.194464,740.205942,-72779.072310
264.981284,3849.070898,6661.853478,-75077.358804
264.983766,15692.365970,6513.812290,-63432.707234
264.986249,-6661.853478,1480.411884,-72472.634111
264.988731,-592.164754,3552.988522,-67722.842023
264.991214,888.247130,148.041188,-72166.195912
264.993696,1036.288319,-5181.441594,-68182.499322
264.996179,6661.853478,11991.336260,-70327.566716
264.998661,43228.027013,10955.047942,-69714.690318
265.001144,-12287.418637,-17320.819043,-67263.184724
265.003626,-32124.937883,7994.224174,-72012.976812
265.006109,9030.512492,-9770.718434,-73545.167808
265.008591,69135.234983,18357.107362,-64658.460031
265.011074,16580.613101,8882.471304,-68335.718422
265.013556,-26055.249158,1036.288319,-67109.965625
265.016038,-19393.395680,5921.647536,-71246.881314
265.018521,24722.878463,10214.842000,-65577.774629
265.021003,41303.491564,10658.965565,-73851.606007
265.023486,14359.995275,11251.130318,-67569.622924
265.025968,-15544.324782,1776.494261,-68335.718422
265.028451,-2368.659014,9770.718434,-68948.594820
265.030933,18949.272115,6957.935855,-68795.375720
265.033416,23390.507767,296.082377,-68642.156621
265.035898,-14952.160028,2664.741391,-71400.100414
265.038381,-8586.388927,8438.347739,-68182.499322
265.040863,23982.672521,1776.494261,-71553.319513
265.043346,31236.690752,8882.471304,-68335.718422
265.045843,15840.407159,11695.253884,-62513.392637
265.048341,-14063.912898,2664.741391,-76149.892501
265.050838,1036.288319,5329.482782,-69408.252119
265.053336,27091.537477,6809.894666,-65118.117330
265.055833,14063.912898,5773.606348,-70787.224015
265.058331,-3997.112087,4737.318029,-70021.128517
265.060829,148.041188,5625.565159,-69714.690318
265.063326,17764.942608,2960.823768,-68642.156621
265.065824,28423.908173,5033.400406,-69101.813920
265.068321,20873.807564,296.082377,-67722.842023
265.070819,-26203.290347,1776.494261,-72625.853210
265.073316,-14508.036463,13471.748144,-61900.516238
265.075814,6957.935855,8142.265362,-76303.111601
265.078312,79794.200548,9030.512492,-61287.639840
265.080809,-48705.550984,-7105.977043,-75537.016103
265.083307,-22354.219448,5773.606348,-70940.443115
265.085804,31532.773129,7402.059420,-63432.707234
265.088302,33605.349767,6217.729913,-73238.729609
265.090799,1776.494261,7105.977043,-71246.881314
265.093297,-18801.230927,10807.006753,-62819.830836
265.095795,-25167.002028,1184.329507,-74004.825107
265.098292,12879.583391,7698.141797,-67263.184724
265.100790,15988.448347,1036.288319,-73545.167808
265.103287,5773.606348,3256.906145,-68182.499322
265.105785,-19837.519246,8142.265362,-69408.252119
265.108282,1332.370696,9178.553681,-68182.499322
265.110780,16876.695478,13175.665768,-71400.100414
265.113278,12287.418637,2072.576638,-68335.718422
265.115775,-26351.331535,5921.647536,-72166.195912
265.118273,8882.471304,9474.636058,-67722.842023
265.120770,19837.519246,11103.089130,-68182.499322
265.123268,148.041188,11843.295072,-65884.212828
265.125765,-11399.171507,12731.542202,-70021.128517
265.128263,-2220.617826,-1332.370696,-74004.825107
265.130761,10214.842000,6217.729913,-68335.718422
265.133258,16876.695478,10066.800811,-65424.555529
265.135756,-18061.024985,9770.718434,-71400.100414
265.138253,-9918.759623,3701.029710,-72319.415011
265.140751,1184.329507,9918.759623,-68335.718422
265.143248,15692.365970,13027.624579,-67416.403824
265.145759,148.041188,-2516.700203,-74924.139704
265.148269,2960.823768,9474.636058,-69255.033019
265.150780,16728.654289,20725.766376,-64045.583633
265.153290,-16876.695478,-3701.029710,-72779.072310
265.155801,2812.782580,9474.636058,-67416.403824
265.158311,-5921.647536,1776.494261,-73851.606007
265.160822,48853.592172,9918.759623,-65577.774629
265.163332,-12287.418637,-1924.535449,-72166.195912
265.165843,-29312.155303,8290.306550,-67569.622924
265.168353,4293.194464,15988.448347,-68948.594820
265.170864,40711.326810,-5033.400406,-68948.594820
265.173374,44856.480085,7402.059420,-72932.291410
265.175885,-2960.823768,12287.418637,-61440.858940
265.178395,-34493.596897,-2664.741391,-72012.976812
265.180905,-6365.771101,2812.782580,-73851.606007
265.183416,50037.921679,13767.830521,-62206.954438
265.185926,34641.638086,7846.182985,-72472.634111
265.188437,-18357.107362,5033.400406,-66650.308326
265.190947,-5477.523971,3997.112087,-69101.813920
265.193458,5625.565159,-6957.935855,-73238.729609
265.195968,56995.857534,11251.130318,-60368.325242
265.198479,-30792.567187,-5329.482782,-78754.617194
265.200989,17024.736666,6957.935855,-59295.791545
265.203500,-4589.276840,4737.318029,-75230.577904
265.206010,34049.473332,-3108.864956,-67722.842023
265.208521,5329.482782,18209.066173,-72319.415011
265.211031,9030.512492,0.000000,-64811.679131
265.213542,-3701.029710,7550.100608,-73238.729609
265.216052,21317.931130,6513.812290,-65730.993728
265.218562,4293.194464,5625.565159,-73391.948708
265.221073,14804.118840,6809.894666,-66650.308326
265.223583,6365.771101,7846.182985,-68182.499322
265.226094,3849.070898,8438.347739,-72012.976812
265.228604,23242.466579,8438.347739,-68335.718422
265.231115,36270.091158,7105.977043,-60827.982541
265.233625,-28868.031738,-6217.729913,-72625.853210
265.236136,-30792.567187,148.041188,-73085.510509
265.238646,44116.274143,16284.530724,-66190.651027
265.241157,-16728.654289,-5625.565159,-76762.768900
265.243667,-22798.343014,6957.935855,-66497.089226
265.246101,11251.130318,5477.523971,-68948.594820
265.248555,15248.242405,2516.700203,-73391.948708
265.251009,22946.384202,13767.830521,-72319.415011
265.253462,740.205942,5625.565159,-64658.460031
265.255916,-25167.002028,1628.453072,-70021.128517
265.258370,-16432.571912,5921.647536,-72779.072310
265.260824,22354.219448,10955.047942,-64658.460031
265.263277,12731.542202,3256.906145,-73238.729609
265.265731,-11695.253884,1628.453072,-68642.156621
265.268185,-8586.388927,7254.018232,-71553.319513
265.270639,15840.407159,9474.636058,-64658.460031
265.273092,16432.571912,4293.194464,-68948.594820
265.275546,4145.153275,12139.377449,-71246.881314
265.278000,-12435.459826,2812.782580,-70480.785816
265.280454,-1332.370696,-1480.411884,-66650.308326
265.282907,10658.965565,2220.617826,-72012.976812
265.285361,10955.047942,4885.359217,-68795.375720
265.287815,-9622.677246,444.123565,-71400.100414
265.290269,-11103.089130,-2664.741391,-72166.195912
265.292722,24870.919651,12879.583391,-61900.516238
265.295176,-6809.894666,7846.182985,-74617.701505
265.297630,-444.123565,-2812.782580,-67569.622924
265.300084,-8586.388927,9918.759623,-70021.128517
265.302537,3552.988522,4441.235652,-70021.128517
265.304991,16876.695478,-5181.441594,-69867.909418
265.307445,3256.906145,5329.482782,-72932.291410
265.309899,-1480.411884,4293.194464,-69101.813920
265.312353,-17320.819043,9030.512492,-70787.224015
265.314806,1628.453072,14952.160028,-68488.937521
265.317260,30200.402434,4293.194464,-67109.965625
265.319714,45596.686027,13175.665768,-66956.746525
265.322168,-25167.002028,0.000000,-71859.757712
265.324621,-22798.343014,7105.977043,-66497.089226
265.327075,-3108.864956,8290.306550,-72012.976812
265.329529,69727.399736,14508.036463,-62360.173537
265.331983,22946.384202,2220.617826,-75230.577904
265.334436,-8142.265362,12583.501014,-60827.982541
265.336890,-34789.679274,10214.842000,-73545.167808
265.339344,11695.253884,2072.576638,-68182.499322
265.341798,42043.697506,2516.700203,-74464.482406
265.344277,24574.837274,10658.965565,-65424.555529
265.346757,-26795.455100,1924.535449,-70480.785816
265.349237,-2072.576638,-888.247130,-68795.375720
265.351716,37602.461854,9030.512492,-62819.830836
265.354196,18357.107362,11695.253884,-70634.004916
265.356676,-7698.141797,-7846.182985,-73391.948708
265.359156,-12287.418637,18061.024985,-67569.622924
265.361635,45300.603650,14359.995275,-60674.763442
265.364115,4885.359217,-4293.194464,-76609.549800
265.366595,-3108.864956,-592.164754,-74617.701505
265.369074,-11251.130318,9178.553681,-70480.785816
265.371554,25907.207970,9918.759623,-62666.611736
265.374034,1480.411884,-1036.288319,-75383.797003
265.376514,15396.283594,8142.265362,-69101.813920
265.378993,11695.253884,11103.089130,-67876.061123
265.381473,5181.441594,11547.212695,-66190.651027
265.383953,5921.647536,16728.654289,-74004.825107
265.386432,20429.683999,3108.864956,-64045.583633
265.388912,-6957.935855,-7402.059420,-67416.403824
265.391392,-21317.931130,-1332.370696,-75230.577904
265.393871,47225.139100,15840.407159,-63585.926334
265.396351,-12583.501014,148.041188,-73391.948708
265.398831,-15396.283594,10510.924376,-64964.898230
265.401311,-2072.576638,3701.029710,-73238.729609
265.403790,27387.619854,3997.112087,-69561.471218
265.406270,14063.912898,10510.924376,-73851.606007
265.408750,-4145.153275,4737.318029,-63279.488135
265.411229,-18357.107362,444.123565,-70480.785816
265.413709,-16580.613101,3552.988522,-73391.948708
265.416189,24722.878463,8734.430116,-64964.898230
265.418669,5625.565159,8290.306550,-70787.224015
265.421148,-7994.224174,4885.359217,-67109.965625
265.423628,-13027.624579,9030.512492,-73851.606007
265.426108,8290.306550,5033.400406,-67416.403824
265.428587,20133.601622,6809.894666,-68335.718422
265.431067,-15692.365970,4441.235652,-73391.948708
265.433547,444.123565,5329.482782,-68488.937521
265.436026,13915.871710,12731.542202,-67109.965625
265.438506,-13619.789333,296.082377,-71859.757712
265.440986,7550.100608,16728.654289,-65730.993728
265.443425,21614.013506,10214.842000,-61747.297139
265.445864,-6365.771101,3552.988522,-75077.358804
265.448303,-5921.647536,8882.471304,-69255.033019
265.450742,6365.771101,5625.565159,-65730.993728
265.453181,-6217.729913,9030.512492,-71400.100414
265.455620,-6217.729913,4293.194464,-70940.443115
265.458059,19245.354492,4885.359217,-69867.909418
265.460498,-2516.700203,5773.606348,-72625.853210
265.462937,6809.894666,7254.018232,-64045.583633
265.465376,-6365.771101,4145.153275,-69714.690318
265.467815,-9474.636058,10955.047942,-71706.538613
265.470254,5921.647536,-3849.070898,-75230.577904
265.472694,41155.450375,15396.283594,-68642.156621
265.475133,-11843.295072,9178.553681,-66497.089226
265.477572,-17764.942608,10214.842000,-64811.679131
265.480011,-15248.242405,21021.848753,-75537.016103
265.482450,59364.516548,12583.501014,-60981.201641
265.484889,29608.237680,9770.718434,-73545.167808
265.487328,-6069.688724,6957.935855,-63892.364533
265.489767,-31236.690752,296.082377,-71246.881314
265.492206,9622.677246,8586.388927,-68642.156621
265.494645,43228.027013,3108.864956,-69867.909418
265.497084,18061.024985,7402.059420,-68029.280222
265.499523,-15100.201217,2664.741391,-66956.746525
265.501962,-4145.153275,5477.523971,-68182.499322
265.504401,26647.413912,9474.636058,-69101.813920
265.506840,12583.501014,2516.700203,-73085.510509
265.509279,-18949.272115,4589.276840,-66037.431928
265.511718,2812.782580,6957.935855,-70480.785816
265.514157,53738.951389,8142.265362,-62819.830836
265.516596,-3404.947333,3108.864956,-74924.139704
265.519036,-9326.594869,1332.370696,-73085.510509
265.521475,2960.823768,4145.153275,-63585.926334
265.523914,32272.979071,16728.654289,-65884.212828
265.526353,3701.029710,-296.082377,-73698.386908
265.528792,12139.377449,4885.359217,-68642.156621
265.531231,13767.830521,15100.201217,-65884.212828
265.533670,5625.565159,15988.448347,-71706.538613
265.536109,15100.201217,5033.400406,-68029.280222
265.538548,7550.100608,-2368.659014,-63432.707234
265.541019,-33753.390955,-148.041188,-78754.617194
265.543489,24870.919651,9178.553681,-66343.870127
265.545960,3849.070898,11251.130318,-73851.606007
265.548431,-5329.482782,7994.224174,-59908.667944
265.550902,-5773.606348,-4145.153275,-74464.482406
265.553373,5625.565159,4589.276840,-76149.892501
265.555843,29016.072926,3849.070898,-66803.527426
265.558314,9326.594869,6513.812290,-68029.280222
265.560785,-31384.731941,11695.253884,-70940.443115
265.563256,-592.164754,7105.977043,-66803.527426
265.565727,11103.089130,6217.729913,-66803.527426
265.568197,-2664.741391,2220.617826,-77069.207099
265.570668,-9178.553681,-3552.988522,-70480.785816
265.573139,8438.347739,8586.388927,-66497.089226
265.575610,-3997.112087,6809.894666,-74004.825107
265.578080,5773.606348,-2664.741391,-70174.347617
265.580551,28275.866984,17320.819043,-61900.516238
265.583022,-20725.766376,6217.729913,-70634.004916
265.585493,4589.276840,-1036.288319,-68948.594820
265.587964,-4589.276840,8438.347739,-72319.415011
265.590434,24870.919651,7105.977043,-62053.735338
265.592905,-13767.830521,6513.812290,-73545.167808
265.595376,-10955.047942,1776.494261,-73545.167808
265.597847,-4441.235652,0.000000,-71093.662214
265.600317,5773.606348,13175.665768,-67109.965625
265.602788,-740.205942,3404.947333,-70021.128517
265.605259,-7994.224174,-296.082377,-71553.319513
265.607730,31828.855506,6365.771101,-68029.280222
265.610201,1776.494261,12435.459826,-71400.100414
265.612671,-15100.201217,-6513.812290,-70940.443115
265.615142,-5773.606348,12435.459826,-68642.156621
265.617613,4885.359217,7105.977043,-67109.965625
265.620084,55811.528027,3701.029710,-66650.308326
265.622554,7550.100608,15544.324782,-73085.510509
265.625025,-22502.260637,16136.489536,-62819.830836
265.627496,-15100.201217,15840.407159,-67876.061123
265.629967,14952.160028,-8882.471304,-71859.757712
265.632438,51666.374752,5329.482782,-68948.594820
265.634908,20429.683999,9474.636058,-67416.403824
265.637379,-24130.713709,4737.318029,-67263.184724
265.639876,-11843.295072,3404.947333,-69867.909418
265.642373,26203.290347,11695.253884,-69714.690318
265.644869,40859.367998,2220.617826,-68488.937521
265.647366,444.123565,8882.471304,-67263.184724
265.649863,-17764.942608,11399.171507,-72166.195912
265.652360,-4293.194464,-1332.370696,-70480.785816
265.654856,55071.322085,8438.347739,-60981.201641
265.657353,-2072.576638,3404.947333,-75077.358804
265.659850,-12879.583391,-5921.647536,-69561.471218
265.662347,18801.230927,15396.283594,-68948.594820
265.664844,38934.832549,296.082377,-61747.297139
265.667340,-10658.965565,-6809.894666,-78601.398095
265.669837,-740.205942,9918.759623,-68948.594820
265.672334,18209.066173,8438.347739,-63585.926334
265.674831,18949.272115,9770.718434,-68795.375720
265.677327,6809.894666,2220.617826,-72779.072310
265.679824,9326.594869,4441.235652,-68642.156621
265.682321,20281.642811,11547.212695,-63126.269035
265.684818,-1480.411884,11251.130318,-71400.100414
265.687314,-10807.006753,-2812.782580,-68642.156621
265.689811,-1776.494261,5773.606348,-72319.415011
265.692308,34789.679274,15544.324782,-67109.965625
265.694805,888.247130,6661.853478,-69101.813920
265.697302,-9178.553681,4145.153275,-62053.735338
265.699798,4737.318029,4885.359217,-71400.100414
265.702295,15396.283594,888.247130,-75537.016103
265.704792,24722.878463,6365.771101,-69714.690318
265.707289,-3404.947333,8734.430116,-65730.993728
265.709785,-30052.361245,3849.070898,-71093.662214
265.712282,-2072.576638,3849.070898,-70174.347617
265.714779,10510.924376,10214.842000,-67876.061123
265.717276,11251.130318,-2516.700203,-73545.167808
265.719772,-3849.070898,8290.306550,-68335.718422
265.722269,-3404.947333,8882.471304,-66956.746525
265.724766,8882.471304,8142.265362,-70634.004916
265.727263,-2960.823768,-2220.617826,-73545.167808
265.729759,7698.141797,13619.789333,-66037.431928
265.732256,10658.965565,10066.800811,-66037.431928
265.734753,5329.482782,10066.800811,-64964.898230
265.737250,-9770.718434,3849.070898,-72166.195912
265.739766,-13323.706956,4885.359217,-76762.768900
265.742281,25907.207970,10955.047942,-58223.257848
265.744797,-4885.359217,11843.295072,-74617.701505
265.747313,-10362.883188,4737.318029,-72012.976812
265.749829,2072.576638,3701.029710,-67263.184724
265.752344,5033.400406,3849.070898,-69101.813920
265.754860,19837.519246,10214.842000,-68488.937521
265.757376,2664.741391,7550.100608,-72012.976812
265.759892,-11547.212695,14211.954086,-70634.004916
265.762407,6217.729913,8142.265362,-62819.830836
265.764923,-15840.407159,444.123565,-73851.606007
265.767439,25167.002028,3108.864956,-75230.577904
265.769955,49593.798114,6957.935855,-63126.269035
265.772471,-22058.137072,-1628.453072,-69255.033019
265.774986,-33013.185013,-2960.823768,-73085.510509
265.777502,9918.759623,-1924.535449,-70480.785816
265.780018,62325.340316,12435.459826,-66343.870127
265.782534,19097.313304,5329.482782,-68642.156621
265.785049,-15248.242405,3404.947333,-65118.117330
265.787565,-20429.683999,8142.265362,-71706.538613
265.790081,23686.590144,5773.606348,-68029.280222
265.792597,44560.397708,6217.729913,-70021.128517
265.795112,3404.947333,7994.224174,-69561.471218
265.797628,-13619.789333,4737.318029,-65884.212828
265.800144,9770.718434,8290.306550,-66956.746525
265.802660,29756.278868,7254.018232,-68335.718422
265.805175,15248.242405,8290.306550,-72319.415011
265.807691,-8882.471304,10214.842000,-66956.746525
265.810207,6365.771101,7402.059420,-70634.004916
265.812723,16136.489536,3701.029710,-68795.375720
265.815239,10510.924376,1628.453072,-72625.853210
265.817754,4145.153275,7550.100608,-68029.280222
265.820270,9918.759623,6957.935855,-64505.240932
265.822786,-1776.494261,1036.288319,-76303.111601
265.825302,35233.802839,17764.942608,-61747.297139
265.827817,24130.713709,6661.853478,-66803.527426
265.830333,-12879.583391,-6661.853478,-70021.128517
265.832849,-11843.295072,11695.253884,-69101.813920
265.835365,1776.494261,9474.636058,-70174.347617
265.837880,30348.443622,296.082377,-67722.842023
265.840412,39082.873738,18209.066173,-66037.431928
265.842943,-39378.956114,-444.123565,-72012.976812
265.845474,-32124.937883,-2664.741391,-71400.100414
265.848006,22058.137072,9326.594869,-68642.156621
265.850537,33457.308578,9918.759623,-71093.662214
265.853068,13175.665768,4145.153275,-70327.566716
265.855600,-35529.885216,11695.253884,-69561.471218
265.858131,-7105.977043,4589.276840,-67569.622924
265.860662,1924.535449,-296.082377,-71400.100414
265.863194,23538.548956,11251.130318,-70327.566716
265.865725,2220.617826,4737.318029,-68795.375720
265.868256,-11399.171507,5181.441594,-68029.280222
265.870788,-8734.430116,8438.347739,-72932.291410
265.873319,34049.473332,7550.100608,-62206.954438
265.875850,-3849.070898,-888.247130,-74617.701505
265.878382,-5033.400406,3849.070898,-69101.813920
265.880913,-1776.494261,7402.059420,-66650.308326
265.883444,21169.889941,7105.977043,-63739.145434
265.885976,-21910.095883,-2072.576638,-78907.836294
265.888507,-888.247130,4589.276840,-67722.842023
265.891038,15692.365970,14063.912898,-64964.898230
265.893570,-12583.501014,4885.359217,-74311.263306
265.896101,-2220.617826,4441.235652,-69101.813920
265.898632,1924.535449,5329.482782,-69867.909418
265.901164,21169.889941,6513.812290,-67109.965625
265.903695,5625.565159,6513.812290,-72012.976812
265.906226,-9622.677246,3404.947333,-70327.566716
265.908758,-12287.418637,10510.924376,-66343.870127
265.911289,-1184.329507,5033.400406,-70327.566716
265.913820,47373.180288,3701.029710,-71246.881314
265.916352,24870.919651,9474.636058,-68335.718422
265.918883,-21169.889941,9030.512492,-66650.308326
265.921414,-21169.889941,12287.418637,-67263.184724
265.923946,-148.041188,148.041188,-72319.415011
265.926477,70615.646867,18209.066173,-62666.611736
265.929008,26943.496289,13915.871710,-66956.746525
265.931540,-21762.054695,-2220.617826,-72166.195912
265.934071,-8142.265362,2812.782580,-67569.622924
265.936602,27387.619854,12139.377449,-69255.033019
265.939134,39082.873738,6809.894666,-69408.252119
265.941677,-2072.576638,-1628.453072,-69561.471218
265.944221,-20281.642811,8142.265362,-70787.224015
265.946765,12731.542202,13471.748144,-65118.117330
265.949309,15396.283594,11103.089130,-72472.634111
265.951853,28868.031738,3552.988522,-68795.375720
265.954397,-21614.013506,1036.288319,-72472.634111
265.956941,20281.642811,12139.377449,-64352.021832
265.959485,30940.608376,10807.006753,-65730.993728
265.962029,6661.853478,-1924.535449,-73085.510509
265.964573,9770.718434,8438.347739,-64505.240932
265.967116,-444.123565,7698.141797,-70327.566716
265.969660,21021.848753,7402.059420,-67876.061123
265.972204,25611.125593,12139.377449,-66190.651027
265.974748,-12287.418637,4441.235652,-73391.948708
265.977292,6513.812290,3701.029710,-61900.516238
265.979836,-18505.148550,5921.647536,-71706.538613
265.982380,16136.489536,2812.782580,-70021.128517
265.984924,44264.315332,17024.736666,-65424.555529
265.987468,-23834.631332,6217.729913,-70634.004916
265.990011,-35381.844028,3404.947333,-69867.909418
265.992555,18505.148550,14508.036463,-65730.993728
265.995099,29164.114115,5329.482782,-74464.482406
265.997643,21169.889941,5329.482782,-70940.443115
266.000187,-15100.201217,7550.100608,-65118.117330
266.002731,-26943.496289,6365.771101,-69101.813920
266.005275,-9918.759623,6513.812290,-71706.538613
266.007819,19985.560434,10066.800811,-69561.471218
266.010363,16876.695478,4441.235652,-73391.948708
266.012906,-2960.823768,9622.677246,-63585.926334
266.015450,-13619.789333,5625.565159,-70940.443115
266.017994,25463.084405,8290.306550,-65730.993728
266.020538,7698.141797,592.164754,-72625.853210
266.023082,-7550.100608,5625.565159,-69101.813920
266.025626,-8734.430116,13619.789333,-67109.965625
266.028170,20873.807564,444.123565,-64198.802732
266.030714,-11843.295072,148.041188,-76762.768900
266.033258,-3552.988522,7550.100608,-71553.319513
266.035802,16284.530724,7550.100608,-60827.982541
266.038345,6809.894666,8290.306550,-68642.156621
266.040889,-18209.066173,5921.647536,-73545.167808
266.043392,14211.954086,5477.523971,-68642.156621
266.045894,12435.459826,5625.565159,-72012.976812
266.048396,6513.812290,8142.265362,-66037.431928
266.050899,-6661.853478,-444.123565,-69101.813920
266.053401,-27535.661042,14804.118840,-71093.662214
266.055904,6957.935855,2812.782580,-71400.100414
266.058406,70911.729244,11103.089130,-65271.336430
266.060908,7254.018232,9770.718434,-70021.128517
266.063411,-41747.615129,-5329.482782,-71553.319513
266.065913,-740.205942,15544.324782,-66497.089226
266.068416,24426.796086,6661.853478,-72779.072310
266.070918,53886.992578,8882.471304,-67416.403824
266.073420,10955.047942,10807.006753,-66650.308326
266.075923,-32717.102636,1184.329507,-69101.813920
266.078425,1628.453072,2960.823768,-69561.471218
266.080927,31976.896694,9326.594869,-70480.785816
266.083430,31828.855506,3849.070898,-69408.252119
266.085932,-3552.988522,7105.977043,-66650.308326
266.088435,4293.194464,8586.388927,-65884.212828
266.090937,9770.718434,-1332.370696,-72625.853210
266.093439,3256.906145,4145.153275,-71246.881314
266.095942,3256.906145,2516.700203,-72166.195912
266.098444,18209.066173,6217.729913,-66343.870127
266.100946,26647.413912,8142.265362,-64964.898230
266.103449,-6809.894666,-3849.070898,-75996.673402
266.105951,444.123565,5477.523971,-69714.690318
266.108454,21465.972318,6661.853478,-65730.993728
266.110956,15248.242405,9474.636058,-69867.909418
266.113458,5921.647536,1332.370696,-73085.510509
266.115961,8290.306550,6513.812290,-65577.774629
266.118463,-8290.306550,4145.153275,-67109.965625
266.120965,-16284.530724,6661.853478,-71093.662214
266.123468,27683.702231,1776.494261,-69408.252119
266.125970,45300.603650,14359.995275,-66803.527426
266.128473,-24426.796086,2812.782580,-74311.263306
266.130975,-35825.967593,5625.565159,-67109.965625
266.133477,10658.965565,15692.365970,-66650.308326
266.135980,27091.537477,4589.276840,-75996.673402
266.138482,23538.548956,1184.329507,-70787.224015
266.140985,4441.235652,18653.189738,-65577.774629
266.143506,-29904.320057,8734.430116,-68488.937521
266.146028,-7550.100608,-1628.453072,-71400.100414
266.148549,22650.301825,13323.706956,-70787.224015
266.151071,13767.830521,592.164754,-69714.690318
266.153592,-6069.688724,1332.370696,-67263.184724
266.156114,-18801.230927,10658.965565,-71093.662214
266.158635,24870.919651,8586.388927,-64811.679131
266.161157,3256.906145,-1628.453072,-74004.825107
266.163679,-3849.070898,9770.718434,-67109.965625
266.166200,-13323.706956,888.247130,-70787.224015
266.168722,22354.219448,12583.501014,-65577.774629
266.171243,2812.782580,9474.636058,-69867.909418
266.173765,-296.082377,0.000000,-69714.690318
266.176286,-10658.965565,4885.359217,-72012.976812
266.178808,6513.812290,10214.842000,-66037.431928
266.181329,-8290.306550,-2960.823768,-72012.976812
266.183851,24426.796086,7254.018232,-67876.061123
266.186373,10955.047942,11991.336260,-70021.128517
266.188894,-5033.400406,-1776.494261,-70480.785816
266.191416,-19837.519246,12139.377449,-69408.252119
266.193937,-8438.347739,1480.411884,-68948.594820
266.196459,54627.198520,1628.453072,-72932.291410
266.198980,36714.214723,9918.759623,-69408.252119
266.201502,-23094.425390,-1776.494261,-65118.117330
266.204023,-35677.926404,592.164754,-70787.224015
266.206545,1924.535449,1036.288319,-71859.757712
266.209067,49741.839302,8882.471304,-70787.224015
266.211588,46188.850781,9622.677246,-65730.993728
266.214110,-16876.695478,5181.441594,-67263.184724
266.216631,-27387.619854,3108.864956,-70021.128517
266.219153,21021.848753,8734.430116,-71093.662214
266.221674,53442.869012,12583.501014,-64505.240932
266.224212,3701.029710,7698.141797,-69561.471218
266.226748,-28571.949361,-3256.906145,-73238.729609
266.229285,8438.347739,7550.100608,-68642.156621
266.231821,28127.825796,14211.954086,-66037.431928
266.234357,5921.647536,6957.935855,-69561.471218
266.236893,22058.137072,11695.253884,-64198.802732
266.239429,-3108.864956,6365.771101,-72779.072310
266.241965,9622.677246,592.164754,-70327.566716
266.244501,10214.842000,5329.482782,-67722.842023
266.247037,13767.830521,4589.276840,-68182.499322
266.249574,17468.860231,9178.553681,-67263.184724
266.252110,23242.466579,10658.965565,-69867.909418
266.254646,3108.864956,18653.189738,-67569.622924
266.257182,-14063.912898,1184.329507,-65271.336430
266.259718,-10362.883188,11547.212695,-70021.128517
266.262254,24870.919651,5921.647536,-70174.347617
266.264790,49001.633360,9622.677246,-66497.089226
266.267327,-27831.743419,5181.441594,-73085.510509
266.269863,-41155.450375,5477.523971,-72012.976812
266.272399,13915.871710,4885.359217,-70787.224015
266.274935,46632.974346,13323.706956,-68029.280222
266.277471,15544.324782,1184.329507,-72166.195912
266.280007,-21317.931130,8290.306550,-66803.527426
266.282543,-27091.537477,17764.942608,-68182.499322
266.285080,-6513.812290,592.164754,-71400.100414
266.287616,26795.455100,3256.906145,-71400.100414
266.290152,13027.624579,11695.253884,-70327.566716
266.292688,-10362.883188,1924.535449,-67263.184724
266.295224,-31384.731941,-2368.659014,-77682.083497
266.297760,31236.690752,5477.523971,-63892.364533
266.300296,11991.336260,17024.736666,-65424.555529
266.302833,-11843.295072,6217.729913,-67876.061123
266.305369,-11991.336260,2220.617826,-73085.510509
266.307905,9326.594869,7698.141797,-69408.252119
266.310441,10066.800811,12731.542202,-67263.184724
266.312977,-4885.359217,1480.411884,-71246.881314
266.315513,0.000000,8734.430116,-68488.937521
266.318049,-11547.212695,10362.883188,-71246.881314
266.320586,4441.235652,444.123565,-69255.033019
266.323122,12731.542202,3552.988522,-74311.263306
266.325669,10066.800811,11695.253884,-65730.993728
266.328217,-3997.112087,592.164754,-63739.145434
266.330765,-41303.491564,12879.583391,-75383.797003
266.333313,13767.830521,-148.041188,-73698.386908
266.335860,86308.012837,10362.883188,-61594.078039
266.338408,-6365.771101,13767.830521,-71093.662214
266.340956,-39230.914926,17024.736666,-68335.718422
266.343503,-7550.100608,10066.800811,-64505.240932
266.346051,25907.207970,1924.535449,-73698.386908
266.348599,56255.651592,4885.359217,-71400.100414
266.351147,5921.647536,9474.636058,-65884.212828
266.353694,-32865.143825,8438.347739,-67109.965625
266.356242,-1924.535449,-1036.288319,-69867.909418
266.358790,40415.244433,11547.212695,-70940.443115
266.361337,28719.990550,7254.018232,-69101.813920
266.363885,-19689.478057,-4293.194464,-72319.415011
266.366433,-9622.677246,9770.718434,-65884.212828
266.368981,23834.631332,12583.501014,-67876.061123
266.371528,16432.571912,-296.082377,-70787.224015
266.374076,23686.590144,11695.253884,-63432.707234
266.376624,11695.253884,9770.718434,-65884.212828
266.379171,-148.041188,3552.988522,-75383.797003
266.381719,9918.759623,5773.606348,-69255.033019
266.384267,22206.178260,5921.647536,-65577.774629
266.386815,9622.677246,4441.235652,-71706.538613
266.389362,38490.708984,16284.530724,-61747.297139
266.391910,-28571.949361,6513.812290,-78601.398095
266.394458,-7254.018232,1628.453072,-64658.460031
266.397005,444.123565,13915.871710,-66037.431928
266.399553,27387.619854,296.082377,-74004.825107
266.402101,47965.345042,11843.295072,-65730.993728
266.404649,-29756.278868,-296.082377,-66803.527426
266.407196,-44708.438897,-2812.782580,-75843.454302
266.409744,21317.931130,10955.047942,-66650.308326
266.412292,44264.315332,6513.812290,-71706.538613
266.414839,14804.118840,7994.224174,-71553.319513
266.417387,-31680.814318,5625.565159,-66497.089226
266.419935,-26351.331535,12435.459826,-68182.499322
266.422483,-7550.100608,3997.112087,-74158.044206
266.425030,41599.573940,8438.347739,-66037.431928
266.427588,4885.359217,7402.059420,-68948.594820
266.430145,-24426.796086,5625.565159,-67722.842023
266.432702,9326.594869,11843.295072,-65884.212828
266.435259,7698.141797,740.205942,-75537.016103
266.437817,6365.771101,6069.688724,-67416.403824
266.440374,-20133.601622,6365.771101,-68029.280222
266.442931,6217.729913,2812.782580,-67876.061123
266.445488,2960.823768,7550.100608,-71093.662214
266.448046,4145.153275,-296.082377,-71859.757712
266.450603,5477.523971,5921.647536,-67876.061123
266.453160,-13175.665768,14804.118840,-68642.156621
266.455717,-6217.729913,-1924.535449,-72779.072310
266.458275,22206.178260,7994.224174,-69561.471218
266.460832,26795.455100,9326.594869,-68182.499322
266.463389,-18209.066173,-1184.329507,-71400.100414
266.465946,-26203.290347,15248.242405,-65730.993728
266.468504,-12879.583391,6513.812290,-73545.167808
266.471061,79646.159359,8586.388927,-66037.431928
266.473618,34049.473332,7402.059420,-68182.499322
266.476175,-38046.585419,3256.906145,-67109.965625
266.478733,-26795.455100,-296.082377,-66956.746525
266.481290,14359.995275,-4145.153275,-72472.634111
266.483847,54331.116143,1332.370696,-75843.454302
266.486404,32124.937883,8290.306550,-65271.336430
266.488962,-25018.960840,7105.977043,-65271.336430
266.491519,-32569.061448,740.205942,-73545.167808
266.494076,31088.649564,8290.306550,-68335.718422
266.496633,51814.415940,9474.636058,-69867.909418
266.499191,-1184.329507,6217.729913,-71400.100414
266.501748,-22650.301825,11843.295072,-64352.021832
266.504305,6957.935855,6957.935855,-68488.937521
266.506862,36862.255912,1776.494261,-70174.347617
266.509420,20873.807564,14211.954086,-64352.021832
266.511977,-26203.290347,2220.617826,-75383.797003
266.514534,4589.276840,-4293.194464,-70327.566716
266.517091,24278.754898,13027.624579,-66650.308326
266.519649,22206.178260,8734.430116,-69714.690318
266.522206,5625.565159,0.000000,-70327.566716
266.524763,35974.008781,15100.201217,-58989.353346
266.527320,-23538.548956,2368.659014,-74004.825107
266.529885,-16136.489536,-3108.864956,-68488.937521
266.532449,13027.624579,18209.066173,-67569.622924
266.535014,38934.832549,10066.800811,-69867.909418
266.537578,17172.777854,6661.853478,-67263.184724
266.540143,-36270.091158,2516.700203,-66497.089226
266.542707,-27683.702231,6069.688724,-72625.853210
266.545272,30052.361245,6069.688724,-69561.471218
266.547836,44708.438897,9030.512492,-70327.566716
266.550401,6217.729913,6365.771101,-68948.594820
266.552965,-41895.656317,4293.194464,-68335.718422
266.555530,-19985.560434,12583.501014,-68488.937521
266.558094,6513.812290,6217.729913,-73085.510509
266.560659,23390.507767,-888.247130,-71553.319513
266.563223,-3404.947333,3404.947333,-69867.909418
266.565788,-28571.949361,12139.377449,-72012.976812
266.568352,14359.995275,14508.036463,-66650.308326
266.570917,26055.249158,7254.018232,-69561.471218
266.573481,-5033.400406,6069.688724,-69561.471218
266.576045,-33013.185013,3108.864956,-73238.729609
266.578610,8882.471304,2960.823768,-66803.527426
266.581174,18209.066173,10955.047942,-66037.431928
266.583739,5181.441594,9326.594869,-72779.072310
266.586303,-13175.665768,888.247130,-70174.347617
266.588868,-6513.812290,148.041188,-68795.375720
266.591432,11695.253884,5921.647536,-69867.909418
266.593997,27239.578666,9326.594869,-68795.375720
266.596561,5477.523971,5033.400406,-72779.072310
266.599126,-23686.590144,21465.972318,-63126.269035
266.601690,-19541.436869,10807.006753,-65118.117330
266.604255,18653.189738,-3997.112087,-79367.493593
266.606819,75797.088461,2072.576638,-66037.431928
266.609384,-1776.494261,11251.130318,-64658.460031
266.611948,-47521.221476,6217.729913,-69867.909418
266.614513,-13619.789333,-592.164754,-69867.909418
266.617077,51814.415940,5477.523971,-67263.184724
266.619642,67950.905476,9326.594869,-68642.156621
266.622206,-8142.265362,-1480.411884,-67263.184724
266.624771,-35825.967593,9474.636058,-66190.651027
266.627335,-1036.288319,10807.006753,-70174.347617
266.629899,40859.367998,296.082377,-70940.443115
266.632468,30348.443622,3404.947333,-73085.510509
266.635037,-10362.883188,16136.489536,-59602.229744
266.637606,-14211.954086,3997.112087,-71859.757712
266.640175,14063.912898,-2220.617826,-76303.111601
266.642744,16876.695478,-592.164754,-71246.881314
266.645313,13323.706956,13027.624579,-62819.830836
266.647882,-2516.700203,6809.894666,-69714.690318
266.650451,-5625.565159,2812.782580,-74617.701505
266.653020,34197.514520,10955.047942,-65424.555529
266.655589,29608.237680,4737.318029,-69714.690318
266.658158,3849.070898,-4737.318029,-71400.100414
266.660727,9030.512492,3404.947333,-59602.229744
266.663295,-35974.008781,9622.677246,-71400.100414
266.665864,9030.512492,296.082377,-75537.016103
266.668433,39526.997303,6957.935855,-72012.976812
266.671002,26795.455100,18653.189738,-61287.639840
266.673571,-57884.104664,2664.741391,-71400.100414
266.676140,-28571.949361,-3849.070898,-71093.662214
266.678709,36566.173535,7254.018232,-71553.319513
266.681278,54479.157331,8734.430116,-68488.937521
266.683847,-1184.329507,3849.070898,-71400.100414
266.686416,-42783.903448,9326.594869,-65271.336430
266.688985,-30200.402434,9622.677246,-69867.909418
266.691554,18061.024985,7550.100608,-74617.701505
266.694123,22798.343014,1776.494261,-72472.634111
266.696691,-1184.329507,6513.812290,-64352.021832
266.699260,-31828.855506,8734.430116,-70174.347617
266.701829,-3997.112087,-1332.370696,-76609.549800
266.704398,37898.544230,12435.459826,-65884.212828
266.706967,3849.070898,12287.418637,-62053.735338
266.709536,-33161.226202,-296.082377,-73085.510509
266.712105,-14656.077652,3701.029710,-75230.577904
266.714674,24870.919651,11103.089130,-63892.364533
266.717243,23390.507767,10510.924376,-68182.499322
266.719812,-26795.455100,7550.100608,-71093.662214
266.722381,-7846.182985,2516.700203,-69867.909418
266.724950,11103.089130,14211.954086,-72472.634111
266.727519,42339.779882,6069.688724,-67569.622924
266.730087,-5773.606348,-592.164754,-67876.061123
266.732656,-37898.544230,12435.459826,-64811.679131
266.735229,-33901.432144,4145.153275,-79061.055394
266.737802,96670.896025,11991.336260,-60215.106143
266.740374,37454.420665,12583.501014,-71859.757712
266.742947,-29608.237680,16728.654289,-60215.106143
266.745520,-44116.274143,12731.542202,-67263.184724
266.748092,2960.823768,-21910.095883,-76303.111601
266.750665,88084.507098,11103.089130,-66037.431928
266.753238,42191.738694,13915.871710,-67416.403824
266.755810,-37602.461854,-7994.224174,-65730.993728
266.758383,-40711.326810,1480.411884,-73085.510509
266.760956,41747.615129,8586.388927,-65271.336430
266.763528,48557.509795,1628.453072,-74004.825107
266.766101,6661.853478,10807.006753,-66343.870127
266.768674,-39675.038491,10214.842000,-70021.128517
266.771246,21910.095883,3108.864956,-69867.909418
266.773819,33013.185013,4441.235652,-66956.746525
266.776392,-1332.370696,9326.594869,-68642.156621
266.778964,-2072.576638,5033.400406,-67109.965625
266.781537,3256.906145,7698.141797,-71400.100414
266.784109,35825.967593,8734.430116,-66343.870127
266.786682,19541.436869,-6957.935855,-73391.948708
266.789255,21910.095883,6809.894666,-68642.156621
266.791827,-9178.553681,3997.112087,-61900.516238
266.794400,-52998.745447,1036.288319,-74617.701505
266.796973,26351.331535,11547.212695,-67569.622924
266.799545,56403.692780,7105.977043,-68948.594820
266.802118,29016.072926,6513.812290,-64352.021832
266.804691,-73576.470635,-3404.947333,-72932.291410
266.807263,-34049.473332,-7402.059420,-72625.853210
266.809836,49001.633360,9918.759623,-72625.853210
266.812409,62473.381505,8882.471304,-66956.746525
266.814981,6513.812290,3701.029710,-68182.499322
266.817554,-64101.834577,4293.194464,-70634.004916
266.820127,-32569.061448,11103.089130,-67263.184724
266.822699,31532.773129,4737.318029,-73238.729609
266.825272,24574.837274,5477.523971,-72625.853210
266.827845,-12879.583391,4885.359217,-67109.965625
266.830417,-27683.702231,12435.459826,-67263.184724
266.832990,14656.077652,2664.741391,-70634.004916
266.835563,37602.461854,-1036.288319,-71553.319513
266.838095,-11547.212695,14211.954086,-64964.898230
266.840627,-28719.990550,6957.935855,-66956.746525
266.843159,-17172.777854,-4293.194464,-76456.330700
266.845692,30200.402434,12583.501014,-67722.842023
266.848224,19985.560434,6069.688724,-67263.184724
266.850756,-24130.713709,-1184.329507,-69867.909418
266.853289,-24278.754898,1036.288319,-75690.235202
266.855821,38194.626607,13027.624579,-66803.527426
266.858353,35529.885216,-740.205942,-72932.291410
266.860886,-24870.919651,6661.853478,-66037.431928
266.863418,-46781.015534,4441.235652,-67109.965625
266.865950,-1480.411884,-3404.947333,-81206.122788
266.868482,101408.214054,10510.924376,-62360.173537
266.871015,17616.901420,14804.118840,-67722.842023
266.873547,-58180.187041,15396.283594,-71400.100414
266.876079,-17616.901420,13915.871710,-63279.488135
266.878612,35085.761651,592.164754,-70021.128517
266.881144,86900.177591,9178.553681,-70021.128517
266.883676,15988.448347,18061.024985,-63585.926334
266.886208,-47225.139100,1036.288319,-66650.308326
266.888741,-22206.178260,-444.123565,-73085.510509
266.891273,47521.221476,8882.471304,-68182.499322
266.893805,56255.651592,18209.066173,-66037.431928
266.896338,-17912.983796,888.247130,-67263.184724
266.898870,-31384.731941,-4293.194464,-73085.510509
266.901402,29756.278868,11251.130318,-71400.100414
266.903935,20133.601622,6809.894666,-68948.594820
266.906467,2960.823768,4589.276840,-67263.184724
266.908999,-19541.436869,4589.276840,-70174.347617
266.911531,19393.395680,3256.906145,-69561.471218
266.914064,32272.979071,1184.329507,-73238.729609
266.916596,44412.356520,15988.448347,-64964.898230
266.919128,-6957.935855,9030.512492,-65424.555529
266.921661,-54035.033766,-4885.359217,-68029.280222
266.924193,-4589.276840,9770.718434,-72625.853210
266.926725,63805.752200,2664.741391,-67263.184724
266.929257,54331.116143,24130.713709,-64658.460031
266.931790,-62177.299128,5329.482782,-68948.594820
266.934322,-65138.122896,0.000000,-73391.948708
266.936854,41599.573940,9622.677246,-72012.976812
266.939398,75797.088461,9770.718434,-68029.280222
266.941941,16728.654289,2368.659014,-71553.319513
266.944484,-51666.374752,4441.235652,-63739.145434
266.947028,-61437.093186,17320.819043,-71246.881314
266.949571,28868.031738,-148.041188,-73851.606007
266.952115,57736.063476,9770.718434,-67416.403824
266.954658,4293.194464,9030.512492,-68488.937521
266.957201,-61289.051998,5477.523971,-75996.673402
266.959745,26943.496289,18061.024985,-60215.106143
266.962288,55959.569215,6957.935855,-70021.128517
266.964832,-23538.548956,-7105.977043,-72779.072310
266.967375,-38342.667796,10066.800811,-65271.336430
266.969918,2664.741391,2516.700203,-66956.746525
266.972462,18357.107362,2072.576638,-74617.701505
266.975005,19541.436869,7254.018232,-70174.347617
266.977548,-18357.107362,7846.182985,-67722.842023
266.980092,-19985.560434,-4589.276840,-70327.566716
266.982635,27091.537477,-148.041188,-71706.538613
266.985179,43079.985824,-2664.741391,-72012.976812
266.987722,-33309.267390,10658.965565,-65730.993728
266.990265,-39971.120868,9918.759623,-66497.089226
266.992809,23538.548956,5033.400406,-77528.864398
266.995352,82755.024316,4293.194464,-63585.926334
266.997895,2368.659014,-4885.359217,-69255.033019
267.000439,-51518.333563,-2220.617826,-70021.128517
267.002982,-38638.750172,-8142.265362,-73851.606007
267.005526,53590.910201,12879.583391,-64198.802732
267.008069,84679.559765,16136.489536,-66650.308326
267.010612,-7550.100608,-4293.194464,-68488.937521
267.013156,-55811.528027,11843.295072,-68795.375720
267.015699,6809.894666,8438.347739,-69101.813920
267.018242,56995.857534,6513.812290,-65577.774629
267.020786,28868.031738,3256.906145,-72625.853210
267.023329,-27683.702231,2220.617826,-67109.965625
267.025873,-15100.201217,9474.636058,-68642.156621
267.028416,55219.363273,7105.977043,-64352.021832
267.030959,14656.077652,2220.617826,-73085.510509
267.033503,-7550.100608,3849.070898,-70327.566716
267.036046,-15100.201217,-2664.741391,-68795.375720
267.038589,46484.933158,7846.182985,-64352.021832
267.041142,48409.468607,25611.125593,-69255.033019
267.043694,2516.700203,4885.359217,-70480.785816
267.046246,-25315.043216,-2960.823768,-59755.448844
267.048799,-49297.715737,13323.706956,-73238.729609
267.051351,41451.532752,444.123565,-72166.195912
267.053903,72540.182316,14804.118840,-65271.336430
267.056455,-5773.606348,6957.935855,-69561.471218
267.059008,-79053.994606,2812.782580,-67722.842023
267.061560,7105.977043,11843.295072,-72166.195912
267.064112,74908.841330,12731.542202,-68795.375720
267.066664,36566.173535,4441.235652,-72166.195912
267.069217,-17320.819043,14804.118840,-62513.392637
267.071769,-83939.353823,6957.935855,-70634.004916
267.074321,-4441.235652,-2220.617826,-76303.111601
267.076873,75204.923707,10362.883188,-64811.679131
267.079426,14508.036463,7402.059420,-71706.538613
267.081978,-38490.708984,-1924.535449,-72319.415011
267.084530,-13027.624579,12731.542202,-65884.212828
267.087082,39823.079680,11991.336260,-63585.926334
267.089635,13027.624579,6957.935855,-70327.566716
267.092187,-33309.267390,5329.482782,-72932.291410
267.094739,-11991.336260,9178.553681,-66190.651027
267.097291,15544.324782,12583.501014,-69714.690318
267.099844,13619.789333,9030.512492,-69408.252119
267.102396,-14211.954086,888.247130,-71859.757712
267.104948,-5625.565159,9030.512492,-68488.937521
267.107501,12435.459826,9622.677246,-68335.718422
267.110053,32717.102636,-2812.782580,-72166.195912
267.112605,-19541.436869,16580.613101,-71093.662214
267.115157,-30496.484810,-3256.906145,-69714.690318
267.117710,49445.756926,10214.842000,-68948.594820
267.120262,52702.663070,6217.729913,-69255.033019
267.122814,-5921.647536,-2516.700203,-67263.184724
267.125366,-49445.756926,7254.018232,-69101.813920
267.127919,-16432.571912,9918.759623,-68182.499322
267.130471,43672.150578,16432.571912,-69714.690318
267.133023,70171.523302,7698.141797,-71400.100414
267.135575,3256.906145,6217.729913,-65577.774629
267.138128,-46040.809592,17468.860231,-65271.336430
267.140680,13323.706956,7698.141797,-70327.566716
267.143240,49741.839302,3849.070898,-71400.100414
267.145799,28868.031738,10510.924376,-68488.937521
267.148359,-44412.356520,5625.565159,-66343.870127
267.150919,-2812.782580,-444.123565,-73085.510509
267.153479,68098.946664,18061.024985,-64505.240932
267.156038,13767.830521,5921.647536,-68488.937521
267.158598,-17468.860231,-2960.823768,-70480.785816
267.161158,-16876.695478,5181.441594,-69255.033019
267.163718,39230.914926,296.082377,-68642.156621
267.166277,50185.962868,14952.160028,-65884.212828
267.168837,5181.441594,5329.482782,-64964.898230
267.171397,-68987.193794,-7105.977043,-70327.566716
267.173957,-9030.512492,3552.988522,-73238.729609
267.176516,73724.511823,10362.883188,-68642.156621
267.179076,52406.580694,9326.594869,-64658.460031
267.181636,-44708.438897,148.041188,-69255.033019
267.184196,-82903.065504,4293.194464,-71400.100414
267.186755,31828.855506,13027.624579,-69714.690318
267.189315,75501.006084,6365.771101,-70940.443115
267.191875,25611.125593,5033.400406,-68488.937521
267.194434,-57884.104664,2516.700203,-65424.555529
267.196994,-64990.081708,14656.077652,-72779.072310
267.199554,47373.180288,1480.411884,-70327.566716
267.202114,51222.251186,2664.741391,-71093.662214
267.204673,-8438.347739,12287.418637,-68948.594820
267.207233,-29608.237680,5921.647536,-61594.078039
267.209793,-13471.748144,7550.100608,-73238.729609
267.212353,56107.610404,3404.947333,-66803.527426
267.214912,-26203.290347,-1184.329507,-74158.044206
267.217472,-15100.201217,7994.224174,-65730.993728
267.220032,2220.617826,6957.935855,-66190.651027
267.222592,26499.372724,5625.565159,-70327.566716
267.225151,-7550.100608,8290.306550,-72932.291410
267.227711,-8438.347739,1628.453072,-67109.965625
267.230271,2220.617826,12731.542202,-71093.662214
267.232831,24870.919651,-1036.288319,-71553.319513
267.235390,-3701.029710,12287.418637,-69101.813920
267.237950,-17468.860231,11695.253884,-63279.488135
267.240510,-4589.276840,148.041188,-76456.330700
267.243070,76093.170838,10510.924376,-64198.802732
267.245636,2664.741391,592.164754,-65730.993728
267.248201,-46336.891969,-3849.070898,-71400.100414
267.250765,-27831.743419,-2664.741391,-73698.386908
267.253330,55219.363273,18061.024985,-64505.240932
267.255895,67654.823099,11695.253884,-68642.156621
267.258460,6513.812290,3997.112087,-69561.471218
267.261024,-41007.409187,10807.006753,-66343.870127
267.263589,-3997.112087,2960.823768,-69101.813920
267.266154,38638.750172,592.164754,-73391.948708
267.268718,30052.361245,4737.318029,-68948.594820
267.271283,-8438.347739,13619.789333,-62666.611736
267.273848,6069.688724,5773.606348,-69408.252119
267.276413,30496.484810,1184.329507,-68795.375720
267.278977,10807.006753,7698.141797,-70174.347617
267.281542,1776.494261,2664.741391,-66650.308326
267.284107,-1480.411884,7846.182985,-68182.499322
267.286672,31976.896694,4737.318029,-72472.634111
267.289236,33901.432144,9918.759623,-68795.375720
267.291801,17764.942608,1776.494261,-61594.078039
267.294366,-60252.763679,-5329.482782,-74311.263306
267.296931,-11103.089130,12731.542202,-68948.594820
267.299495,70467.605678,10510.924376,-69714.690318
267.302060,18949.272115,13915.871710,-65730.993728
267.304625,-42931.944636,-3701.029710,-63739.145434
267.307190,-67358.740722,7698.141797,-76303.111601
267.309754,50037.921679,10510.924376,-72012.976812
267.312319,66026.370026,1480.411884,-68948.594820
267.314884,9178.553681,3997.112087,-69255.033019
267.317449,-54479.157331,9326.594869,-67416.403824
267.320013,-59068.434172,7550.100608,-72012.976812
267.322578,47817.303853,2368.659014,-71246.881314
267.325143,46484.933158,6661.853478,-68335.718422
267.327708,-2072.576638,13175.665768,-61747.297139
267.330272,-64545.958142,3256.906145,-77835.302597
267.332837,41599.573940,1036.288319,-66343.870127
267.335402,22798.343014,12287.418637,-66497.089226
267.337967,-23094.425390,3404.947333,-68182.499322
267.340531,-33309.267390,888.247130,-76762.768900
267.343096,16728.654289,9030.512492,-65271.336430
267.345661,19393.395680,8586.388927,-71400.100414
267.348230,1332.370696,6069.688724,-65884.212828
267.350799,-32865.143825,1184.329507,-80133.589091
267.353369,36714.214723,5033.400406,-63279.488135
267.355938,12435.459826,0.000000,-72779.072310
267.358507,-31088.649564,14952.160028,-69561.471218
267.361076,-9178.553681,1036.288319,-66343.870127
267.363646,58328.228230,1924.535449,-71553.319513
267.366215,35381.844028,11251.130318,-67263.184724
267.368784,-25759.166782,5181.441594,-67722.842023
267.371353,-33753.390955,10510.924376,-67263.184724
267.373922,-11991.336260,-2812.782580,-74004.825107
267.376492,74316.676577,5773.606348,-65271.336430
267.379061,36566.173535,2812.782580,-68948.594820
267.381630,-31088.649564,6957.935855,-65577.774629
267.384199,-27683.702231,10066.800811,-69561.471218
267.386769,29164.114115,8438.347739,-72779.072310
267.389338,31828.855506,1480.411884,-74311.263306
267.391907,11399.171507,10955.047942,-64352.021832
267.394476,-22206.178260,14952.160028,-67109.965625
267.397046,26795.455100,-888.247130,-69255.033019
267.399615,13323.706956,3552.988522,-74158.044206
267.402184,25167.002028,10955.047942,-62513.392637
267.404753,-1332.370696,10362.883188,-65118.117330
267.407323,3997.112087,-9326.594869,-76762.768900
267.409892,46929.056723,11991.336260,-65424.555529
267.412461,40711.326810,3701.029710,-57763.600549
267.415030,-80830.488866,-11991.336260,-85802.695776
267.417599,-888.247130,14804.118840,-62206.954438
267.420169,57884.104664,11399.171507,-69867.909418
267.422738,55219.363273,11251.130318,-64964.898230
267.425307,-46632.974346,8882.471304,-68795.375720
267.427876,-62917.505070,-2072.576638,-68948.594820
267.430446,33605.349767,8290.306550,-73851.606007
267.433015,67062.658345,7550.100608,-68642.156621
267.435584,12287.418637,2812.782580,-68795.375720
267.438153,-55219.363273,2368.659014,-66343.870127
267.440723,-52406.580694,8438.347739,-71246.881314
267.443292,42931.944636,2960.823768,-72932.291410
267.445861,43228.027013,1480.411884,-70634.004916
267.448430,-10807.006753,7994.224174,-68488.937521
267.451003,-3552.988522,17468.860231,-59755.448844
267.453576,-31088.649564,-444.123565,-76456.330700
267.456149,30348.443622,1776.494261,-74617.701505
267.458722,-8438.347739,16580.613101,-69101.813920
267.461295,1332.370696,8586.388927,-64658.460031
267.463868,-17024.736666,7550.100608,-74924.139704
267.466441,7846.182985,1776.494261,-68642.156621
267.469014,6217.729913,6661.853478,-67416.403824
267.471587,2368.659014,5773.606348,-71706.538613
267.474160,13175.665768,13471.748144,-70787.224015
267.476733,15988.448347,0.000000,-65424.555529
267.479306,-41599.573940,5181.441594,-72472.634111
267.481879,-7994.224174,3108.864956,-71553.319513
267.484452,83495.230258,12879.583391,-65118.117330
267.487025,5033.400406,4885.359217,-66956.746525
267.489598,-40859.367998,-592.164754,-68795.375720
267.492171,-32421.020260,3256.906145,-69408.252119
267.494744,27091.537477,888.247130,-72625.853210
267.497317,86456.054026,9030.512492,-66650.308326
267.499889,26943.496289,7105.977043,-65730.993728
267.502462,-50630.086433,1184.329507,-70174.347617
267.505035,-15544.324782,3552.988522,-68029.280222
267.507608,37454.420665,5773.606348,-71859.757712
267.510181,67950.905476,9918.759623,-63126.269035
267.512754,-44856.480085,6365.771101,-69714.690318
267.515327,-10362.883188,444.123565,-74311.263306
267.517900,66322.452403,13175.665768,-63279.488135
267.520473,26055.249158,7846.182985,-68182.499322
267.523046,-24278.754898,-1776.494261,-73851.606007
267.525619,-7698.141797,4885.359217,-64505.240932
267.528192,41599.573940,9622.677246,-70480.785816
267.530765,30644.525999,12583.501014,-74924.139704
267.533338,4885.359217,2516.700203,-61134.420740
267.535911,-35085.761651,14804.118840,-64045.583633
267.538484,31976.896694,1776.494261,-69408.252119
267.541057,62325.340316,2664.741391,-72779.072310
267.543630,4589.276840,5773.606348,-66803.527426
267.546203,-72984.305881,-3256.906145,-70327.566716
267.548776,-29608.237680,9918.759623,-71706.538613
267.551349,57736.063476,11695.253884,-70787.224015
267.553923,61733.175563,7846.182985,-68642.156621
267.556498,-12879.583391,10362.883188,-68795.375720
267.559073,-70171.523302,6957.935855,-66190.651027
267.561647,-33161.226202,4293.194464,-75690.235202
267.564222,76537.294403,7994.224174,-66190.651027
267.566797,-1628.453072,3108.864956,-72932.291410
267.569371,-20873.807564,8586.388927,-63739.145434
267.571946,-28571.949361,14063.912898,-70327.566716
267.574521,47817.303853,6069.688724,-63432.707234
267.577096,-24278.754898,7402.059420,-77835.302597
267.579670,-3701.029710,-740.205942,-66803.527426
267.582245,-6809.894666,11103.089130,-66956.746525
267.584820,2368.659014,2664.741391,-71859.757712
267.587394,4737.318029,9770.718434,-69867.909418
267.589969,-1332.370696,0.000000,-70327.566716
267.592544,21910.095883,7550.100608,-68795.375720
267.595118,5329.482782,3701.029710,-65424.555529
267.597693,-42043.697506,8290.306550,-76762.768900
267.600268,5921.647536,10214.842000,-66037.431928
267.602842,71503.893997,3997.112087,-66343.870127
267.605417,20133.601622,6069.688724,-71553.319513
267.607992,-29460.196492,7402.059420,-63739.145434
267.610566,-34493.596897,3997.112087,-68488.937521
267.613141,6365.771101,3997.112087,-71246.881314
267.615716,101704.296431,22354.219448,-61440.858940
267.618290,15248.242405,9326.594869,-69867.909418
267.620865,-46929.056723,-888.247130,-67263.184724
267.623440,-15544.324782,6661.853478,-67569.622924
267.626015,37898.544230,-888.247130,-72012.976812
267.628589,19689.478057,-296.082377,-77835.302597
267.631164,9326.594869,6661.853478,-60827.982541
267.633739,-10510.924376,8586.388927,-69714.690318
267.636313,15396.283594,8142.265362,-70940.443115
267.638888,29016.072926,6513.812290,-68642.156621
267.641463,10362.883188,5477.523971,-64505.240932
267.644037,-16136.489536,5921.647536,-72166.195912
267.646612,43820.191766,12583.501014,-66497.089226
267.649187,24722.878463,8438.347739,-70480.785816
267.651761,-7550.100608,-5625.565159,-63739.145434
267.654336,-45004.521274,5329.482782,-72932.291410
267.656912,28423.908173,7846.182985,-69408.252119
267.659488,65138.122896,21465.972318,-67109.965625
267.662064,-10214.842000,6513.812290,-68948.594820
267.664640,-67358.740722,-7550.100608,-71400.100414
267.667216,-21169.889941,11547.212695,-72319.415011
267.669792,72688.223504,10362.883188,-68795.375720
267.672368,24870.919651,4293.194464,-70940.443115
267.674944,-16284.530724,10658.965565,-62206.954438
267.677521,-86159.971649,3108.864956,-77528.864398
267.680097,19689.478057,3997.112087,-67722.842023
267.682673,63805.752200,13027.624579,-69255.033019
267.685249,2220.617826,8142.265362,-65424.555529
267.687825,-33309.267390,3701.029710,-68029.280222
267.690401,-4885.359217,2664.741391,-72166.195912
267.692977,27979.784608,1332.370696,-68029.280222
267.695553,-13767.830521,2368.659014,-67876.061123
267.698129,-19245.354492,5477.523971,-71400.100414
267.700705,9178.553681,11399.171507,-65424.555529
267.703281,4885.359217,2072.576638,-73698.386908
267.705857,-5477.523971,1776.494261,-72625.853210
267.708433,21910.095883,1628.453072,-61747.297139
267.711009,-1184.329507,3108.864956,-77988.521696
267.713585,-10066.800811,11695.253884,-68948.594820
267.716161,-13915.871710,8438.347739,-66037.431928
267.718737,19837.519246,-1480.411884,-75383.797003
267.721313,43968.232955,6365.771101,-70327.566716
267.723889,-11547.212695,444.123565,-61747.297139
267.726465,-42783.903448,296.082377,-69867.909418
267.729042,-19541.436869,10955.047942,-73085.510509
267.731618,54627.198520,9178.553681,-69714.690318
267.734194,78461.829852,22946.384202,-65271.336430
267.736770,-10362.883188,-296.082377,-65424.555529
267.739346,-54183.074954,740.205942,-74004.825107
267.741922,14211.954086,13767.830521,-67416.403824
267.744498,35677.926404,2812.782580,-74924.139704
267.747074,32421.020260,4589.276840,-68335.718422
267.749650,-41155.450375,11399.171507,-69408.252119
267.752226,54035.033766,11991.336260,-62206.954438
267.754802,25907.207970,11695.253884,-72012.976812
267.757378,1628.453072,-1776.494261,-72779.072310
267.759955,-9030.512492,3108.864956,-66650.308326
267.762532,33161.226202,13323.706956,-60981.201641
267.765110,25315.043216,10066.800811,-71859.757712
267.767687,4589.276840,-1184.329507,-66650.308326
267.770264,-38194.626607,11251.130318,-69101.813920
267.772841,2960.823768,-148.041188,-68335.718422
267.775418,40415.244433,2664.741391,-74311.263306
267.777996,11547.212695,-4145.153275,-65424.555529
267.780573,-61289.051998,1924.535449,-72932.291410
267.783150,-14359.995275,13619.789333,-68488.937521
267.785727,42931.944636,6365.771101,-70480.785816
267.788304,49889.880491,4885.359217,-69867.909418
267.790881,-11695.253884,16580.613101,-68182.499322
267.793459,-61733.175563,3552.988522,-68182.499322
267.796036,-20725.766376,444.123565,-73851.606007
267.798613,55515.445650,11399.171507,-68795.375720
267.801190,296.082377,3849.070898,-72779.072310
267.803767,-24722.878463,2072.576638,-66497.089226
267.806345,-20429.683999,11399.171507,-68182.499322
267.808922,28868.031738,3404.947333,-69561.471218
267.811499,3552.988522,10510.924376,-68948.594820
267.814076,-5477.523971,7402.059420,-67722.842023
267.816653,-17172.777854,4885.359217,-70174.347617
267.819231,-3108.864956,444.123565,-72625.853210
267.821808,11547.212695,7254.018232,-68488.937521
267.824385,12287.418637,8734.430116,-69867.909418
267.826962,9622.677246,-1332.370696,-70940.443115
267.829539,-36862.255912,5921.647536,-70174.347617
267.832116,-9030.512492,9178.553681,-69561.471218
267.834694,53738.951389,-148.041188,-71246.881314
267.837271,52850.704259,6513.812290,-68488.937521
267.839848,-19541.436869,12435.459826,-63432.707234
267.842425,-51518.333563,13767.830521,-69408.252119
267.845002,-10807.006753,2664.741391,-73238.729609
267.847580,64545.958142,6217.729913,-67263.184724
267.850157,68098.946664,6957.935855,-68795.375720
267.852734,-15840.407159,5033.400406,-64811.679131
267.855311,-37898.544230,4145.153275,-70021.128517
267.857888,24722.878463,3108.864956,-73851.606007
267.860466,46781.015534,7846.182985,-67569.622924
267.863005,20281.642811,9770.718434,-64045.583633
267.865545,-33901.432144,-740.205942,-73085.510509
267.868085,32124.937883,14359.995275,-64505.240932
267.870625,25167.002028,7846.182985,-70021.128517
267.873165,14656.077652,0.000000,-68948.594820
267.875705,-20133.601622,1776.494261,-73391.948708
267.878245,39526.997303,26647.413912,-59908.667944
267.880785,22798.343014,10510.924376,-65884.212828
267.883325,-26795.455100,1332.370696,-72472.634111
267.885865,-16136.489536,6513.812290,-66650.308326
267.888405,37158.338288,6513.812290,-70174.347617
267.890945,44412.356520,13175.665768,-69255.033019
267.893485,-24574.837274,6957.935855,-68795.375720
267.896025,-57439.981099,-8586.388927,-72472.634111
267.898565,5033.400406,3256.906145,-70940.443115
267.901105,59956.681302,9326.594869,-70787.224015
267.903645,17320.819043,4293.194464,-71859.757712
267.906185,-29608.237680,4589.276840,-59602.229744
267.908725,-56699.775157,10362.883188,-75383.797003
267.911265,38490.708984,5181.441594,-70174.347617
267.913805,38786.791361,7698.141797,-70787.224015
267.916345,-25315.043216,4293.194464,-71246.881314
267.918885,-10214.842000,9918.759623,-65730.993728
267.921425,14359.995275,6661.853478,-71093.662214
267.923965,-18505.148550,2368.659014,-78754.617194
267.926504,13619.789333,15840.407159,-59908.667944
267.929044,-12139.377449,15544.324782,-69408.252119
267.931584,-3256.906145,-2812.782580,-73085.510509
267.934124,-4737.318029,6809.894666,-72166.195912
267.936664,13323.706956,7994.224174,-67569.622924
267.939204,9326.594869,5329.482782,-71400.100414
267.941744,-2072.576638,-3701.029710,-67416.403824
267.944255,-30052.361245,8586.388927,-71246.881314
267.946766,22206.178260,3701.029710,-70327.566716
267.949277,51814.415940,-1628.453072,-71246.881314
267.951788,25018.960840,7846.182985,-60674.763442
267.954299,-50778.127621,-4737.318029,-73545.167808
267.956810,-29016.072926,4293.194464,-68948.594820
267.959320,42783.903448,8438.347739,-71859.757712
267.961831,92081.619185,8586.388927,-62666.611736
267.964342,-7994.224174,3552.988522,-69561.471218
267.966853,-52702.663070,8586.388927,-69561.471218
267.969364,12139.377449,5477.523971,-64964.898230
267.971875,24870.919651,3849.070898,-79980.369991
267.974386,43079.985824,2664.741391,-66037.431928
267.976897,-39675.038491,7254.018232,-69408.252119
267.979408,31680.814318,15100.201217,-63432.707234
267.981918,9474.636058,7846.182985,-75996.673402
267.984429,14359.995275,-8734.430116,-71859.757712
267.986940,3849.070898,9474.636058,-65424.555529
267.989451,-444.123565,15544.324782,-69561.471218
267.991962,32272.979071,-2960.823768,-68182.499322
267.994473,-21465.972318,2072.576638,-71553.319513
267.996984,444.123565,17024.736666,-64198.802732
267.999495,16876.695478,-444.123565,-72166.195912
268.002005,49889.880491,11843.295072,-63585.926334
268.004516,-25315.043216,1924.535449,-72472.634111
268.007027,-42635.862259,-6661.853478,-69255.033019
268.009538,-5181.441594,4293.194464,-74617.701505
268.012049,55959.569215,7994.224174,-66190.651027
268.014560,4737.318029,2664.741391,-73391.948708
268.017071,-22058.137072,13175.665768,-60674.763442
268.019582,-51814.415940,5033.400406,-75077.358804
268.022093,29460.196492,5625.565159,-69408.252119
268.024603,40711.326810,11991.336260,-66803.527426
268.027114,8882.471304,7550.100608,-66497.089226
268.029625,-54923.280896,-1036.288319,-75843.454302
268.032136,11251.130318,8290.306550,-64352.021832
268.034647,11251.130318,5181.441594,-73851.606007
268.037158,2664.741391,2664.741391,-65118.117330
268.039669,-21910.095883,5625.565159,-72319.415011
268.042180,9178.553681,3256.906145,-66650.308326
268.044690,-17320.819043,1924.535449,-76303.111601
268.047201,37306.379477,7105.977043,-61594.078039
268.049712,-888.247130,4885.359217,-75843.454302
268.052223,-11843.295072,5477.523971,-67263.184724
268.054734,-18357.107362,-296.082377,-69561.471218
268.057245,29904.320057,5773.606348,-73238.729609
268.059756,59512.557737,-2516.700203,-69101.813920
268.062267,-2516.700203,5773.606348,-61747.297139
268.064794,-37454.420665,22502.260637,-68182.499322
268.067321,-27387.619854,4145.153275,-78141.740796
268.069848,74908.841330,10362.883188,-63279.488135
268.072375,62917.505070,13027.624579,-69867.909418
268.074902,-14952.160028,2220.617826,-64352.021832
268.077429,-48113.386230,3552.988522,-73391.948708
268.079957,13915.871710,4293.194464,-71706.538613
268.082484,42339.779882,3849.070898,-67569.622924
268.085011,41895.656317,11843.295072,-61440.858940
268.087538,-44116.274143,5329.482782,-81206.122788
268.090065,20133.601622,-6661.853478,-71093.662214
268.092592,39971.120868,18061.024985,-62206.954438
268.095119,12435.459826,-1628.453072,-69408.252119
268.097646,23242.466579,11695.253884,-63585.926334
268.100174,296.082377,10510.924376,-70480.785816
268.102701,-1628.453072,-6069.688724,-68795.375720
268.105228,-10955.047942,1776.494261,-64505.240932
268.107755,1628.453072,5329.482782,-72166.195912
268.110282,42043.697506,12731.542202,-70787.224015
268.112809,7698.141797,23242.466579,-68029.280222
268.115336,-31532.773129,4145.153275,-64811.679131
268.117863,-6809.894666,6069.688724,-71706.538613
268.120391,38638.750172,6365.771101,-74158.044206
268.122918,40711.326810,7994.224174,-66190.651027
268.125445,-21762.054695,5033.400406,-69255.033019
268.127972,-59364.516548,2516.700203,-71246.881314
268.130499,5033.400406,6957.935855,-68335.718422
268.133026,43079.985824,9622.677246,-71859.757712
268.135553,17172.777854,10807.006753,-65577.774629
268.138080,-33013.185013,4145.153275,-71706.538613
268.140608,4737.318029,4441.235652,-71093.662214
268.143135,-5773.606348,-296.082377,-73698.386908
268.145673,13767.830521,11991.336260,-62360.173537
268.148211,-20725.766376,7550.100608,-71553.319513
268.150749,1332.370696,-148.041188,-69714.690318
268.153286,-3701.029710,7254.018232,-74311.263306
268.155824,20429.683999,6809.894666,-63432.707234
268.158362,-4885.359217,10214.842000,-77222.426198
268.160900,14656.077652,4737.318029,-64658.460031
268.163438,-28719.990550,7254.018232,-71400.100414
268.165976,35825.967593,8438.347739,-71400.100414
268.168514,42191.738694,3404.947333,-70940.443115
268.171052,5773.606348,-1480.411884,-60215.106143
268.173590,-55219.363273,-2368.659014,-73391.948708
268.176128,-11991.336260,13767.830521,-68182.499322
268.178666,39675.038491,11843.295072,-69408.252119
268.181204,80682.447678,3256.906145,-66037.431928
268.183742,1332.370696,888.247130,-69408.252119
268.186280,-45892.768404,2812.782580,-68182.499322
268.188818,11547.212695,9770.718434,-64352.021832
268.191356,30052.361245,8586.388927,-63126.269035
268.193893,4589.276840,444.123565,-74464.482406
268.196431,-30200.402434,10214.842000,-71246.881314
268.198969,17172.777854,888.247130,-69408.252119
268.201507,37602.461854,9178.553681,-65577.774629
268.204045,10362.883188,6365.771101,-74617.701505
268.206583,148.041188,-2220.617826,-68642.156621
268.209121,46484.933158,13619.789333,-56384.628653
268.211659,-14063.912898,2516.700203,-76149.892501
268.214197,-33457.308578,1036.288319,-67722.842023
268.216735,20577.725188,12879.583391,-67109.965625
268.219273,40563.285622,14508.036463,-65577.774629
268.221811,-8734.430116,-5181.441594,-74464.482406
268.224349,-53294.827824,3256.906145,-71093.662214
268.226887,5921.647536,17172.777854,-64505.240932
268.229425,31236.690752,-2072.576638,-78294.959896
268.231963,41895.656317,5773.606348,-66497.089226
268.234501,-18505.148550,6957.935855,-68182.499322
268.237038,-55959.569215,3256.906145,-68488.937521
268.239576,-5329.482782,5773.606348,-72012.976812
268.242114,54775.239708,7698.141797,-65884.212828
268.244652,7994.224174,4441.235652,-74158.044206
268.247203,-51962.457128,-4589.276840,-75537.016103
268.249750,1776.494261,10214.842000,-65730.993728
268.252298,19689.478057,9918.759623,-71093.662214
268.254846,10066.800811,3849.070898,-66497.089226
268.257394,-19541.436869,7994.224174,-72932.291410
268.259942,-1628.453072,8882.471304,-64964.898230
268.262490,-18949.272115,1480.411884,-76456.330700
268.265038,32421.020260,5773.606348,-66497.089226
268.267586,7846.182985,7402.059420,-73085.510509
268.270134,-20725.766376,7846.182985,-70480.785816
268.272681,-22946.384202,0.000000,-71400.100414
268.275229,60696.887244,11991.336260,-66343.870127
268.277777,41303.491564,13027.624579,-70327.566716
268.280325,-15840.407159,-3552.988522,-62513.392637
268.282873,-49149.674549,3552.988522,-70634.004916
268.285421,-12731.542202,11399.171507,-71093.662214
268.287969,69431.317360,17320.819043,-66190.651027
268.290517,58180.187041,9770.718434,-71553.319513
268.293065,-14359.995275,2072.576638,-66037.431928
268.295612,-46484.933158,5921.647536,-68182.499322
268.298160,47225.139100,11695.253884,-62513.392637
268.300708,9918.759623,-1776.494261,-80440.027290
268.303256,21169.889941,8734.430116,-61594.078039
268.305804,-15544.324782,13027.624579,-67876.061123
268.308352,9770.718434,1776.494261,-75077.358804
268.310900,22650.301825,10214.842000,-68642.156621
268.313448,36418.132346,12287.418637,-64811.679131
268.315996,-5921.647536,-10066.800811,-76456.330700
268.318543,19837.519246,2072.576638,-61440.858940
268.321091,-11991.336260,18949.272115,-68029.280222
268.323639,-23390.507767,7550.100608,-70940.443115
268.326187,37454.420665,3701.029710,-73851.606007
268.328735,27239.578666,25463.084405,-64045.583633
268.331283,-25018.960840,4293.194464,-63432.707234
268.333831,-53146.786636,-13619.789333,-79367.493593
268.336379,26647.413912,12583.501014,-72166.195912
268.338927,66174.411215,7994.224174,-64198.802732
268.341474,-8290.306550,-4589.276840,-72779.072310
268.344022,-37306.379477,19097.313304,-61747.297139
268.346570,-41747.615129,7994.224174,-71706.538613
268.349090,46632.974346,-1036.288319,-73391.948708
268.351610,18357.107362,18209.066173,-66037.431928
268.354130,-16284.530724,6069.688724,-66956.746525
268.356650,-14508.036463,3552.988522,-74924.139704
268.359170,7550.100608,3256.906145,-68795.375720
268.361690,23686.590144,10807.006753,-63739.145434
268.364210,-29312.155303,3404.947333,-74770.920605
268.366730,-6365.771101,-2072.576638,-69867.909418
268.369250,-2812.782580,9178.553681,-71859.757712
268.371770,21465.972318,7402.059420,-67109.965625
268.374290,-5181.441594,5033.400406,-76303.111601
268.376810,-3256.906145,11695.253884,-68948.594820
268.379330,-13915.871710,2516.700203,-66190.651027
268.381850,31532.773129,6365.771101,-74004.825107
268.384370,47225.139100,148.041188,-71706.538613
268.386890,-5773.606348,1628.453072,-60521.544342
268.389410,-42487.821071,9326.594869,-72012.976812
268.391930,-31384.731941,9770.718434,-72932.291410
268.394450,67950.905476,8438.347739,-61900.516238
268.396970,67358.740722,6217.729913,-73545.167808
268.399490,-3552.988522,12583.501014,-64198.802732
268.402010,-38490.708984,6957.935855,-70174.347617
268.404531,22354.219448,7254.018232,-70174.347617
268.407051,55515.445650,13175.665768,-66190.651027
268.409571,-7846.182985,6661.853478,-68182.499322
268.412091,-3701.029710,4441.235652,-66190.651027
268.414611,6661.853478,5477.523971,-74311.263306
268.417131,34789.679274,-148.041188,-67109.965625
268.419651,24426.796086,5033.400406,-67722.842023
268.422171,11547.212695,9622.677246,-66037.431928
268.424691,10066.800811,-7105.977043,-68488.937521
268.427211,-21169.889941,13915.871710,-68335.718422
268.429731,-14952.160028,2516.700203,-76303.111601
268.432251,45892.768404,5477.523971,-66956.746525
268.434771,28719.990550,14804.118840,-65577.774629
268.437291,-36270.091158,5921.647536,-71706.538613
268.439811,-41451.532752,-148.041188,-71246.881314
268.442331,36714.214723,11103.089130,-70174.347617
268.444851,46188.850781,8734.430116,-70021.128517
268.447371,-1332.370696,4737.318029,-70787.224015
268.449904,-39971.120868,14656.077652,-62666.611736
268.452438,-39823.079680,7105.977043,-72166.195912
268.454971,46336.891969,3108.864956,-70327.566716
268.457504,26055.249158,7402.059420,-65271.336430
268.460038,-45744.727216,-148.041188,-77835.302597
268.462571,-5625.565159,9622.677246,-63432.707234
268.465105,12435.459826,5477.523971,-71246.881314
268.467638,5625.565159,8438.347739,-70634.004916
268.470172,-17912.983796,5181.441594,-70634.004916
268.472705,6809.894666,5181.441594,-63126.269035
268.475239,-14804.118840,14063.912898,-72932.291410
268.477772,5921.647536,-2072.576638,-72166.195912
268.480306,13767.830521,0.000000,-71093.662214
268.482839,-8734.430116,15248.242405,-66956.746525
268.485372,-32421.020260,-2812.782580,-75077.358804
268.487906,70763.688055,13175.665768,-63432.707234
268.490439,34345.555709,12879.583391,-68795.375720
268.492973,-18357.107362,-2368.659014,-63585.926334
268.495506,-44708.438897,0.000000,-69714.690318
268.498040,-12139.377449,296.082377,-71859.757712
268.500573,61733.175563,5033.400406,-72472.634111
268.503107,73576.470635,15248.242405,-62819.830836
268.505640,-26795.455100,6365.771101,-68948.594820
268.508173,-23834.631332,3256.906145,-73238.729609
268.510707,36270.091158,16432.571912,-64964.898230
268.513240,49001.633360,9918.759623,-67109.965625
268.515774,-14508.036463,2220.617826,-74924.139704
268.518307,-1036.288319,10362.883188,-61134.420740
268.520841,16580.613101,8882.471304,-70787.224015
268.523374,20281.642811,11103.089130,-74004.825107
268.525908,11843.295072,2664.741391,-71706.538613
268.528441,36862.255912,14211.954086,-58529.696047
268.530974,-11843.295072,9326.594869,-68029.280222
268.533508,-20429.683999,3256.906145,-69561.471218
268.536041,26055.249158,2960.823768,-69561.471218
268.538575,53442.869012,19837.519246,-66190.651027
268.541108,-34789.679274,1332.370696,-72779.072310
268.543642,-43079.985824,5773.606348,-67416.403824
268.546175,8586.388927,11991.336260,-69867.909418
268.548709,41303.491564,-7550.100608,-76762.768900
268.551253,37306.379477,6513.812290,-68182.499322
268.553798,-33753.390955,7402.059420,-67263.184724
268.556343,-57884.104664,2072.576638,-72166.195912
268.558888,31976.896694,3849.070898,-69101.813920
268.561433,40711.326810,16876.695478,-64658.460031
268.563977,-21910.095883,-1776.494261,-72779.072310
268.566522,-19837.519246,3108.864956,-73238.729609
268.569067,17912.983796,14656.077652,-62513.392637
268.571612,10362.883188,4293.194464,-69101.813920
268.574157,-22206.178260,6069.688724,-73851.606007
268.576701,0.000000,7402.059420,-67263.184724
268.579246,-9918.759623,4589.276840,-72319.415011
268.581791,10362.883188,4737.318029,-67263.184724
268.584336,12435.459826,7105.977043,-71093.662214
268.586881,-1628.453072,8734.430116,-68948.594820
268.589425,-15544.324782,1332.370696,-70634.004916
268.591970,37306.379477,6365.771101,-70174.347617
268.594515,41007.409187,7550.100608,-71400.100414
268.597060,-5773.606348,-1776.494261,-62053.735338
268.599605,-50482.045244,6957.935855,-76303.111601
268.602149,-14508.036463,13323.706956,-68182.499322
268.604694,64545.958142,15840.407159,-63279.488135
268.607239,54183.074954,9030.512492,-76149.892501
268.609784,2516.700203,1776.494261,-62819.830836
268.612329,-30052.361245,10362.883188,-68642.156621
268.614873,24426.796086,2960.823768,-70634.004916
268.617418,29904.320057,2812.782580,-71246.881314
268.619963,-2072.576638,12287.418637,-67416.403824
268.622508,17320.819043,9326.594869,-62053.735338
268.625053,4441.235652,6809.894666,-72779.072310
268.627598,26795.455100,-296.082377,-69561.471218
268.630142,22354.219448,21465.972318,-67263.184724
268.632687,24426.796086,7846.182985,-63279.488135
268.635232,-8142.265362,5921.647536,-65884.212828
268.637777,-25759.166782,2368.659014,-68948.594820
268.640322,22946.384202,3997.112087,-71093.662214
268.642866,49741.839302,6957.935855,-64658.460031
268.645411,-27831.743419,-1332.370696,-73085.510509
268.647956,-44116.274143,4145.153275,-70940.443115
268.650501,-4145.153275,16876.695478,-69408.252119
268.653020,53738.951389,6957.935855,-70634.004916
268.655539,24574.837274,4441.235652,-72319.415011
268.658058,-19097.313304,13027.624579,-64505.240932
268.660577,-57291.939911,9474.636058,-72166.195912
268.663097,24870.919651,4145.153275,-68795.375720
268.665616,40415.244433,10362.883188,-69561.471218
268.668135,-25315.043216,-2516.700203,-73238.729609
268.670654,-5773.606348,8734.430116,-67876.061123
268.673173,-2960.823768,15544.324782,-70174.347617
268.675692,22502.260637,9326.594869,-67569.622924
268.678211,-14952.160028,2516.700203,-72932.291410
268.680731,3997.112087,4885.359217,-64352.021832
268.683250,-26055.249158,7698.141797,-76303.111601
268.685769,15840.407159,3849.070898,-65424.555529
268.688288,13471.748144,11695.253884,-68642.156621
268.690807,-6069.688724,14952.160028,-69408.252119
268.693326,-23686.590144,-6957.935855,-73391.948708
268.695846,67506.781910,8290.306550,-63585.926334
268.698365,21762.054695,8142.265362,-72319.415011
268.700884,-11251.130318,-5625.565159,-61594.078039
268.703403,-41451.532752,15692.365970,-71553.319513
268.705922,-9178.553681,8734.430116,-70787.224015
268.708441,65434.205273,3404.947333,-68488.937521
268.710960,63657.711012,11103.089130,-64352.021832
268.713480,-31088.649564,9918.759623,-69714.690318
268.715999,-10658.965565,-5477.523971,-67876.061123
268.718518,888.247130,6217.729913,-78601.398095
268.721037,64842.040519,15840.407159,-59142.572446
268.723556,-12731.542202,1776.494261,-70940.443115
268.726075,-7698.141797,11991.336260,-68335.718422
268.728594,5181.441594,6217.729913,-71706.538613
268.731114,55367.404462,16136.489536,-62666.611736
268.733633,-21910.095883,-10955.047942,-82891.532884
268.736152,45744.727216,740.205942,-55465.314055
268.738671,-39526.997303,16284.530724,-76149.892501
268.741190,-296.082377,7698.141797,-68948.594820
268.743709,40267.203245,-444.123565,-70480.785816
268.746229,39526.997303,26203.290347,-62973.049936
268.748748,-34937.720462,7846.182985,-68182.499322
268.751267,-48557.509795,-13767.830521,-74770.920605
268.753801,20429.683999,13323.706956,-74464.482406
268.756334,57143.898722,7105.977043,-66650.308326
268.758868,-2072.576638,-3256.906145,-72932.291410
268.761402,-29904.320057,18949.272115,-61900.516238
268.763935,-38046.585419,5625.565159,-72319.415011
268.766469,38638.750172,5181.441594,-69255.033019
268.769003,19689.478057,9770.718434,-70174.347617
268.771537,-25463.084405,2220.617826,-66956.746525
268.774070,-16728.654289,14508.036463,-69867.909418
268.776604,13175.665768,-3108.864956,-73085.510509
268.779138,4145.153275,6809.894666,-69714.690318
268.781671,1332.370696,12435.459826,-67416.403824
268.784205,-19837.519246,2812.782580,-69255.033019
268.786739,-12583.501014,5921.647536,-72779.072310
268.789273,27979.784608,9178.553681,-68488.937521
268.791806,6809.894666,9918.759623,-67876.061123
268.794340,-17616.901420,4145.153275,-72625.853210
268.796874,23390.507767,3849.070898,-71553.319513
268.799407,54775.239708,4589.276840,-68642.156621
268.801941,-10066.800811,7550.100608,-69101.813920
268.804475,-30792.567187,18061.024985,-65730.993728
268.807009,-13027.624579,7105.977043,-66343.870127
268.809542,41007.409187,-15248.242405,-70174.347617
268.812076,71059.770432,11251.130318,-69561.471218
268.814610,-8734.430116,5477.523971,-68488.937521
268.817143,-30052.361245,5329.482782,-70480.785816
268.819677,36122.049970,8438.347739,-65118.117330
268.822211,16284.530724,4589.276840,-73698.386908
268.824745,-2072.576638,-740.205942,-69714.690318
268.827278,24426.796086,17320.819043,-60981.201641
268.829812,9326.594869,2072.576638,-74004.825107
268.832346,17024.736666,2072.576638,-69714.690318
268.834879,22946.384202,19245.354492,-64964.898230
268.837413,7402.059420,1924.535449,-70787.224015
268.839947,-9030.512492,-3404.947333,-67876.061123
268.842481,-10510.924376,16432.571912,-66343.870127
268.845014,31384.731941,10955.047942,-68182.499322
268.847548,32865.143825,1628.453072,-65884.212828
268.850082,-29460.196492,6365.771101,-70174.347617
268.852615,-28868.031738,3552.988522,-70174.347617
268.855161,4737.318029,3552.988522,-73545.167808
268.857707,51370.292375,12287.418637,-67263.184724
268.860254,592.164754,-1184.329507,-72472.634111
268.862800,-19097.313304,6365.771101,-62666.611736
268.865346,-36270.091158,13619.789333,-73391.948708
268.867892,19245.354492,-888.247130,-69408.252119
268.870438,26795.455100,12731.542202,-68182.499322
268.872984,2220.617826,9622.677246,-63739.145434
268.875530,-7846.182985,12139.377449,-67722.842023
268.878076,-2960.823768,5329.482782,-74924.139704
268.880622,-5181.441594,296.082377,-72319.415011
268.883168,18801.230927,13471.748144,-62053.735338
268.885714,-26943.496289,2072.576638,-76149.892501
268.888260,7550.100608,8734.430116,-64505.240932
268.890806,2664.741391,5181.441594,-71859.757712
268.893352,13767.830521,12287.418637,-68335.718422
268.895898,-11991.336260,3552.988522,-69255.033019
268.898444,41895.656317,-4737.318029,-71706.538613
268.900990,28868.031738,7402.059420,-71246.881314
268.903536,-15692.365970,592.164754,-63739.145434
268.906082,-38194.626607,6365.771101,-74770.920605
268.908629,-296.082377,14804.118840,-66190.651027
268.911175,64990.081708,6957.935855,-63892.364533
268.913721,58032.145853,17912.983796,-68335.718422
268.916267,-26795.455100,296.082377,-71706.538613
268.918813,-17024.736666,-3701.029710,-66190.651027
268.921359,13471.748144,3404.947333,-73238.729609
268.923905,32569.061448,1184.329507,-68795.375720
268.926451,-9326.594869,2220.617826,-71553.319513
268.928997,3256.906145,5477.523971,-66190.651027
268.931543,23538.548956,592.164754,-67569.622924
268.934089,28571.949361,8882.471304,-71093.662214
268.936635,22946.384202,6365.771101,-65884.212828
268.939181,4589.276840,-9178.553681,-67876.061123
268.941727,-28423.908173,11251.130318,-73238.729609
268.944273,-7550.100608,10658.965565,-66956.746525
268.946819,42043.697506,4589.276840,-69561.471218
268.949365,-1036.288319,21317.931130,-69101.813920
268.951911,-21317.931130,2664.741391,-63432.707234
268.954457,-20429.683999,-2220.617826,-72932.291410
268.957013,18653.189738,13175.665768,-75537.016103
268.959568,43968.232955,5625.565159,-68029.280222
268.962124,-12731.542202,444.123565,-71093.662214
268.964679,-34789.679274,12583.501014,-67876.061123
268.967235,-8438.347739,4737.318029,-68029.280222
268.969790,25018.960840,3997.112087,-72012.976812
268.972345,25167.002028,16136.489536,-64964.898230
268.974901,-34789.679274,-1924.535449,-72012.976812
268.977456,-9326.594869,3404.947333,-75383.797003
268.980012,18357.107362,10658.965565,-66803.527426
268.982567,14211.954086,6069.688724,-67109.965625
268.985122,-20429.683999,1924.535449,-74004.825107
268.987678,-15100.201217,2960.823768,-68642.156621
268.990233,7994.224174,8586.388927,-69714.690318
268.992789,2960.823768,6513.812290,-71859.757712
268.995344,16580.613101,8142.265362,-65577.774629
268.997899,-17764.942608,-740.205942,-78141.740796
269.000455,60696.887244,15692.365970,-62973.049936
269.003010,-2664.741391,6661.853478,-70634.004916
269.005566,-20577.725188,1332.370696,-64352.021832
269.008121,-15692.365970,9918.759623,-66190.651027
269.010677,25018.960840,10066.800811,-66956.746525
269.013232,43376.068201,9622.677246,-74311.263306
269.015787,24722.878463,5181.441594,-63432.707234
269.018343,-26499.372724,6513.812290,-69408.252119
269.020898,1776.494261,3404.947333,-68795.375720
269.023454,3849.070898,-11843.295072,-77682.083497
269.026009,51666.374752,14804.118840,-61594.078039
269.028564,8586.388927,17172.777854,-60674.763442
269.031120,-1924.535449,888.247130,-73391.948708
269.033675,14656.077652,5181.441594,-70634.004916
269.036231,41451.532752,14359.995275,-62206.954438
269.038786,22058.137072,12583.501014,-68488.937521
269.041341,-21762.054695,148.041188,-70021.128517
269.043897,-21169.889941,5033.400406,-69101.813920
269.046452,22206.178260,7105.977043,-68029.280222
269.049008,44412.356520,15396.283594,-66803.527426
269.051563,-37750.503042,5477.523971,-75690.235202
269.054119,-27387.619854,4441.235652,-64811.679131
269.056674,27091.537477,11547.212695,-67569.622924
269.059237,35085.761651,6365.771101,-72319.415011
269.061801,3108.864956,10510.924376,-72319.415011
269.064364,-18209.066173,6069.688724,-63126.269035
269.066928,-24426.796086,9178.553681,-72012.976812
269.069491,15988.448347,6217.729913,-70480.785816
269.072054,9326.594869,3256.906145,-71553.319513
269.074618,-1332.370696,6809.894666,-67722.842023
269.077181,-296.082377,11399.171507,-64352.021832
269.079744,-17912.983796,2664.741391,-69867.909418
269.082308,-21317.931130,2812.782580,-77528.864398
269.084871,15692.365970,7846.182985,-64352.021832
269.087435,-1332.370696,8586.388927,-69561.471218
269.089998,-12879.583391,-592.164754,-73085.510509
269.092561,4885.359217,-2220.617826,-67569.622924
269.095125,-9474.636058,12139.377449,-75383.797003
269.097688,9326.594869,3108.864956,-70174.347617
269.100252,66174.411215,5773.606348,-63432.707234
269.102815,8586.388927,9030.512492,-72166.195912
269.105378,-30052.361245,4737.318029,-63126.269035
269.107942,-10214.842000,7105.977043,-66956.746525
269.110505,12435.459826,9474.636058,-75230.577904
269.113069,65434.205273,0.000000,-67109.965625
269.115632,10955.047942,10510.924376,-65730.993728
269.118195,-31680.814318,7846.182985,-73545.167808
269.120759,-7994.224174,-3256.906145,-74924.139704
269.123322,59956.681302,17468.860231,-60827.982541
269.125885,1332.370696,12879.583391,-70940.443115
269.128449,15988.448347,3849.070898,-62666.611736
269.131012,-19985.560434,2960.823768,-79214.274493
269.133576,51074.209998,-1628.453072,-63892.364533
269.136139,27387.619854,18357.107362,-67569.622924
269.138702,7550.100608,592.164754,-70327.566716
269.141266,-13027.624579,7105.977043,-70634.004916
269.143829,-8882.471304,11103.089130,-66956.746525
269.146393,23834.631332,3849.070898,-69714.690318
269.148956,32717.102636,6661.853478,-65577.774629
269.151519,-24426.796086,4441.235652,-69255.033019
269.154083,-30792.567187,-5773.606348,-72625.853210
269.156646,-2072.576638,7846.182985,-73085.510509
269.159209,42783.903448,13027.624579,-67876.061123
269.161781,3108.864956,4589.276840,-67109.965625
269.164350,-25018.960840,4145.153275,-68488.937521
269.166920,-13915.871710,5921.647536,-72625.853210
269.169490,16432.571912,-1332.370696,-69867.909418
269.172059,5477.523971,11695.253884,-71400.100414
269.174629,2516.700203,11399.171507,-63126.269035
269.177198,-14359.995275,5329.482782,-71706.538613
269.179768,6217.729913,6513.812290,-68642.156621
269.182337,-1480.411884,5181.441594,-72166.195912
269.184907,6809.894666,9326.594869,-67569.622924
269.187476,-14508.036463,8882.471304,-71246.881314
269.190046,-7846.182985,2812.782580,-70174.347617
269.192615,13471.748144,5477.523971,-65424.555529
269.195185,-888.247130,17616.901420,-70634.004916
269.197754,6217.729913,1036.288319,-74004.825107
269.200324,66322.452403,7550.100608,-63279.488135
269.202893,-9474.636058,9622.677246,-69561.471218
269.205463,-32421.020260,1036.288319,-62973.049936
269.208033,-14063.912898,-592.164754,-70327.566716
269.210602,37010.297100,3404.947333,-71093.662214
269.213172,42191.738694,4737.318029,-70940.443115
269.215741,-9770.718434,13619.789333,-66343.870127
269.218311,-23834.631332,-1332.370696,-72625.853210
269.220880,1184.329507,5477.523971,-74464.482406
269.223450,64397.916954,21762.054695,-62973.049936
269.226019,-3701.029710,6069.688724,-71553.319513
269.228589,-5181.441594,-2220.617826,-64811.679131
269.231158,14656.077652,5033.400406,-70634.004916
269.233728,15692.365970,7994.224174,-70021.128517
269.236297,41155.450375,11103.089130,-66650.308326
269.238867,6217.729913,4145.153275,-67876.061123
269.241437,-22650.301825,7105.977043,-69255.033019
269.244011,2368.659014,-6957.935855,-69714.690318
269.246586,34493.596897,14656.077652,-69867.909418
269.249161,-5477.523971,6513.812290,-73391.948708
269.251735,-19541.436869,3108.864956,-62973.049936
269.254310,-12731.542202,9770.718434,-71706.538613
269.256885,10807.006753,5329.482782,-73545.167808
269.259459,40563.285622,3552.988522,-69101.813920
269.262034,-4885.359217,7994.224174,-68642.156621
269.264609,-29312.155303,1480.411884,-70940.443115
269.267184,-6809.894666,4885.359217,-70021.128517
269.269758,31680.814318,-148.041188,-68488.937521
269.272333,-15100.201217,10658.965565,-73545.167808
269.274908,-2812.782580,13915.871710,-60981.201641
269.277482,-14211.954086,-1184.329507,-78754.617194
269.280057,13323.706956,7402.059420,-67569.622924
269.282632,11843.295072,8734.430116,-67263.184724
269.285206,-14656.077652,2664.741391,-72472.634111
269.287781,-7550.100608,296.082377,-68182.499322
269.290356,296.082377,11251.130318,-70787.224015
269.292931,1628.453072,6513.812290,-71859.757712
269.295505,-10807.006753,-4293.194464,-78754.617194
269.298080,77425.541533,14211.954086,-59142.572446
269.300655,5329.482782,8586.388927,-71706.538613
269.303229,-35233.802839,-12139.377449,-66956.746525
269.305804,-19245.354492,3404.947333,-71246.881314
269.308379,13915.871710,10214.842000,-71553.319513
269.310953,69283.276171,11843.295072,-66190.651027
269.313528,17468.860231,13767.830521,-68335.718422
269.316103,-27979.784608,0.000000,-68795.375720
269.318678,5773.606348,2072.576638,-62819.830836
269.321252,19837.519246,1332.370696,-71246.881314
269.323827,-4885.359217,-6809.894666,-75996.673402
269.326402,15692.365970,8882.471304,-59449.010645
269.328976,21614.013506,10510.924376,-67263.184724
269.331551,3108.864956,11843.295072,-75230.577904
269.334126,25315.043216,1480.411884,-63279.488135
269.336700,38046.585419,-10214.842000,-62360.173537
269.339275,-42635.862259,-1036.288319,-78907.836294
269.341850,-6513.812290,1036.288319,-67109.965625
269.344424,29164.114115,6365.771101,-68488.937521
269.347002,3701.029710,6809.894666,-70327.566716
269.349580,-10658.965565,-1480.411884,-64964.898230
269.352158,-18653.189738,4737.318029,-74158.044206
269.354736,25167.002028,7550.100608,-68488.937521
269.357314,15100.201217,1480.411884,-73085.510509
269.359892,5181.441594,8586.388927,-66037.431928
269.362470,-24426.796086,7402.059420,-69714.690318
269.365048,-7105.977043,3108.864956,-71859.757712
269.367626,18801.230927,14508.036463,-64045.583633
269.370203,9474.636058,4885.359217,-69255.033019
269.372781,0.000000,5625.565159,-66956.746525
269.375359,-31680.814318,-3997.112087,-77375.645298
269.377937,18505.148550,8882.471304,-64505.240932
269.380515,10214.842000,10955.047942,-67569.622924
269.383093,-3849.070898,-2516.700203,-72166.195912
269.385671,-5329.482782,12287.418637,-69408.252119
269.388249,-13767.830521,13175.665768,-70940.443115
269.390827,11991.336260,6513.812290,-65118.117330
269.393404,-4737.318029,0.000000,-76915.987999
269.395982,67950.905476,8290.306550,-64658.460031
269.398560,15544.324782,2812.782580,-68335.718422
269.401138,-38638.750172,296.082377,-66037.431928
269.403716,-15544.324782,2220.617826,-67416.403824
269.406294,29016.072926,10362.883188,-71093.662214
269.408872,62325.340316,-2812.782580,-69255.033019
269.411450,27535.661042,18061.024985,-58989.353346
269.414028,-45004.521274,-2960.823768,-76456.330700
269.416606,-1628.453072,-6957.935855,-74924.139704
269.419183,58032.145853,12139.377449,-61900.516238
269.421761,7402.059420,11103.089130,-70634.004916
269.424339,15692.365970,5033.400406,-62973.049936
269.426917,1184.329507,16728.654289,-71246.881314
269.429495,16284.530724,3256.906145,-74004.825107
269.432073,47373.180288,20281.642811,-59295.791545
269.434651,1480.411884,5773.606348,-70174.347617
269.437229,-19245.354492,-296.082377,-69867.909418
269.439807,-7994.224174,6217.729913,-66343.870127
269.442384,38194.626607,10807.006753,-68948.594820
269.444962,-1924.535449,4885.359217,-71553.319513
269.447540,-5477.523971,1924.535449,-60827.982541
269.450121,-25315.043216,9326.594869,-77835.302597
269.452702,6809.894666,-148.041188,-74004.825107
269.455282,20873.807564,-1332.370696,-72012.976812
269.457863,-2812.782580,13323.706956,-65730.993728
269.460444,-18061.024985,3849.070898,-69867.909418
269.463024,-14656.077652,2664.741391,-74004.825107
269.465605,33605.349767,18357.107362,-61900.516238
269.468186,-4145.153275,7402.059420,-70787.224015
269.470766,-12583.501014,3256.906145,-69255.033019
269.473347,-7402.059420,7698.141797,-72472.634111
269.475928,10510.924376,2516.700203,-68029.280222
269.478509,12287.418637,8438.347739,-70021.128517
269.481089,-17764.942608,3404.947333,-72012.976812
269.483670,-5329.482782,592.164754,-66650.308326
269.486251,-8882.471304,13619.789333,-72012.976812
269.488831,9770.718434,8586.388927,-68029.280222
269.491412,15692.365970,-1036.288319,-75843.454302
269.493993,66322.452403,13915.871710,-63432.707234
269.496573,-18505.148550,6809.894666,-67416.403824
269.499154,-35677.926404,-10066.800811,-68029.280222
269.501735,-10214.842000,2812.782580,-71859.757712
269.504315,57736.063476,14211.954086,-64045.583633
269.506896,21614.013506,6957.935855,-74924.139704
269.509477,-21465.972318,-2960.823768,-66190.651027
269.512057,296.082377,6217.729913,-64658.460031
269.514638,3997.112087,3997.112087,-78601.398095
269.517219,47521.221476,-740.205942,-67109.965625
269.519800,-2220.617826,8882.471304,-66037.431928
269.522380,3849.070898,13619.789333,-64505.240932
269.524961,-4589.276840,9326.594869,-75077.358804
269.527542,33605.349767,8734.430116,-66190.651027
269.530122,22946.384202,5033.400406,-71246.881314
269.532703,-17024.736666,5181.441594,-68795.375720
269.535284,-19245.354492,6957.935855,-69255.033019
269.537864,17172.777854,5181.441594,-67263.184724
269.540445,44264.315332,10955.047942,-63585.926334
269.543026,-25611.125593,-2516.700203,-75230.577904
269.545606,-29312.155303,148.041188,-69561.471218
269.548187,-148.041188,14508.036463,-69101.813920
269.550768,20577.725188,4293.194464,-71400.100414
269.553350,13175.665768,1776.494261,-72166.195912
269.555932,-5181.441594,7846.182985,-66650.308326
269.558514,-17616.901420,8142.265362,-69408.252119
269.561096,3997.112087,148.041188,-71246.881314
269.563679,18357.107362,14211.954086,-68029.280222
269.566261,-8882.471304,13175.665768,-65884.212828
269.568843,-24426.796086,2368.659014,-74311.263306
269.571425,11399.171507,15692.365970,-69101.813920
269.574007,13915.871710,9326.594869,-68182.499322
269.576589,9474.636058,9918.759623,-70787.224015
269.579171,-23094.425390,3108.864956,-72932.291410
269.581753,-2368.659014,13471.748144,-63892.364533
269.584336,-6661.853478,10214.842000,-68795.375720
269.586918,15840.407159,-1480.411884,-76762.768900
269.589500,71059.770432,11843.295072,-63585.926334
269.592082,-6365.771101,14211.954086,-66190.651027
269.594664,-48853.592172,-6217.729913,-68948.594820
269.597246,-18801.230927,148.041188,-70480.785816
269.599828,49149.674549,10214.842000,-68029.280222
269.602411,62769.463882,-444.123565,-68335.718422
269.604993,-1184.329507,7254.018232,-65271.336430
269.607575,-38046.585419,2664.741391,-74004.825107
269.610157,39526.997303,296.082377,-60368.325242
269.612739,47669.262665,26647.413912,-61747.297139
269.615321,-6069.688724,-3108.864956,-73391.948708
269.617903,-13175.665768,13767.830521,-71400.100414
269.620486,30052.361245,0.000000,-66190.651027
269.623068,31976.896694,8438.347739,-64658.460031
269.625650,13619.789333,0.000000,-73698.386908
269.628232,-1776.494261,5477.523971,-67722.842023
269.630814,-5329.482782,14804.118840,-62819.830836
269.633396,-2516.700203,-1480.411884,-72319.415011
269.635978,40711.326810,15100.201217,-64198.802732
269.638561,-30052.361245,4441.235652,-74617.701505
269.641143,-20281.642811,-3404.947333,-71400.100414
269.643725,3108.864956,10955.047942,-69561.471218
269.646307,29756.278868,3552.988522,-68335.718422
269.648889,3404.947333,3849.070898,-75383.797003
269.651471,-5625.565159,10658.965565,-65577.774629
269.654053,-6957.935855,11251.130318,-66650.308326
269.656637,-148.041188,10214.842000,-67263.184724
269.659220,14952.160028,740.205942,-70480.785816
269.661804,1184.329507,-592.164754,-72012.976812
269.664387,-43672.150578,-2220.617826,-77988.521696
269.666971,21910.095883,8586.388927,-63279.488135
269.669554,10807.006753,15396.283594,-70327.566716
269.672138,4885.359217,740.205942,-74464.482406
269.674721,-7994.224174,8586.388927,-63585.926334
269.677305,-17912.983796,4293.194464,-69714.690318
269.679888,-8882.471304,7698.141797,-73391.948708
269.682472,26351.331535,-3256.906145,-71553.319513
269.685055,75649.047272,8734.430116,-67109.965625
269.687639,-5033.400406,8290.306550,-64964.898230
269.690222,-46484.933158,2220.617826,-65730.993728
269.692806,-592.164754,1332.370696,-67263.184724
269.695389,52702.663070,11251.130318,-72472.634111
269.697973,54183.074954,-592.164754,-68182.499322
269.700556,-18653.189738,2072.576638,-63432.707234
269.703140,-21762.054695,7402.059420,-73238.729609
269.705723,39378.956114,7550.100608,-67109.965625
269.708307,22206.178260,3849.070898,-71706.538613
269.710890,1480.411884,444.123565,-68642.156621
269.713474,-11251.130318,1332.370696,-72779.072310
269.716057,29312.155303,10955.047942,-64352.021832
269.718641,33901.432144,15248.242405,-65118.117330
269.721224,19245.354492,10658.965565,-69867.909418
269.723808,6809.894666,-1332.370696,-64352.021832
269.726391,-24130.713709,6365.771101,-71400.100414
269.728975,5921.647536,0.000000,-68948.594820
269.731558,32865.143825,8734.430116,-66343.870127
269.734142,-9178.553681,1924.535449,-70174.347617
269.736725,-17024.736666,2516.700203,-70480.785816
269.739308,-15100.201217,4885.359217,-74770.920605
269.741892,28868.031738,7994.224174,-65577.774629
269.744475,16432.571912,10658.965565,-67416.403824
269.747059,-15396.283594,2812.782580,-71706.538613
269.749642,-14063.912898,1776.494261,-72625.853210
269.752226,17320.819043,14656.077652,-60215.106143
269.754809,4589.276840,4737.318029,-73238.729609
269.757393,-8142.265362,4885.359217,-67876.061123
269.759977,-7402.059420,9474.636058,-68488.937521
269.762560,-3256.906145,3849.070898,-72779.072310
269.765144,10066.800811,7254.018232,-70021.128517
269.767727,3256.906145,2516.700203,-72166.195912
269.770311,-5625.565159,-5033.400406,-65884.212828
269.772895,-22354.219448,7698.141797,-75077.358804
269.775478,4737.318029,10066.800811,-71553.319513
269.778062,52406.580694,5625.565159,-70787.224015
269.780646,51370.292375,4145.153275,-67109.965625
269.783229,-37750.503042,15248.242405,-66956.746525
269.785813,-42339.779882,5329.482782,-68335.718422
269.788396,22946.384202,-148.041188,-65118.117330
269.790980,50482.045244,-3997.112087,-77069.207099
269.793564,36270.091158,19985.560434,-64964.898230
269.796147,-37158.338288,9030.512492,-64964.898230
269.798731,3404.947333,-2368.659014,-72625.853210
269.801314,55515.445650,5329.482782,-64045.583633
269.803898,17024.736666,10658.965565,-74311.263306
269.806482,-9326.594869,4589.276840,-65730.993728
269.809065,1480.411884,1332.370696,-67569.622924
269.811649,30200.402434,11991.336260,-66803.527426
269.814233,10214.842000,8882.471304,-76609.549800
269.816816,34493.596897,5329.482782,-62819.830836
269.819400,-8290.306550,9622.677246,-64505.240932
269.821983,-40119.162056,-1184.329507,-75996.673402
269.824567,39082.873738,11399.171507,-65577.774629
269.827151,-8586.388927,-2664.741391,-76149.892501
269.829734,-1480.411884,2072.576638,-65730.993728
269.832318,-33013.185013,14063.912898,-76762.768900
269.834902,31088.649564,15692.365970,-60827.982541
269.837485,9622.677246,3997.112087,-76915.987999
269.840069,6069.688724,17172.777854,-69867.909418
269.842652,-1184.329507,10214.842000,-64811.679131
269.845236,-29460.196492,-6217.729913,-74311.263306
269.847820,33753.390955,19837.519246,-61134.420740
269.850403,25315.043216,17912.983796,-63585.926334
269.852987,-17764.942608,296.082377,-71400.100414
269.855571,-9918.759623,2812.782580,-74617.701505
269.858154,18801.230927,4589.276840,-65884.212828
269.860738,17320.819043,14656.077652,-70480.785816
269.863322,-22650.301825,-4737.318029,-72166.195912
269.865906,-19097.313304,7698.141797,-68335.718422
269.868490,-3552.988522,9178.553681,-71859.757712
269.871074,35677.926404,-1480.411884,-71400.100414
269.873658,67950.905476,4145.153275,-68948.594820
269.876242,-6069.688724,11399.171507,-64964.898230
269.878826,-42635.862259,7698.141797,-66956.746525
269.881410,444.123565,-1332.370696,-68948.594820
269.883994,55219.363273,10066.800811,-73391.948708
269.886578,51962.457128,11251.130318,-64352.021832
269.889162,-33013.185013,-9030.512492,-67263.184724
269.891746,-14359.995275,-1332.370696,-74770.920605
269.894330,7698.141797,-2664.741391,-75690.235202
269.896914,82903.065504,21317.931130,-55618.533155
269.899498,-17764.942608,13471.748144,-75383.797003
269.902082,-9622.677246,-3256.906145,-66343.870127
269.904666,-19541.436869,9474.636058,-81052.903688
269.907250,54627.198520,13175.665768,-58529.696047
269.909834,22058.137072,14063.912898,-70634.004916
269.912418,-3404.947333,-6809.894666,-64352.021832
269.915002,-31828.855506,592.164754,-72932.291410
269.917586,15692.365970,18357.107362,-67416.403824
269.920170,7698.141797,15100.201217,-73545.167808
269.922754,6513.812290,5033.400406,-63585.926334
269.925338,-2664.741391,5773.606348,-67569.622924
269.927922,-23982.672521,8734.430116,-78754.617194
269.930506,6217.729913,592.164754,-73851.606007
269.933089,17912.983796,13619.789333,-67109.965625
269.935673,-2220.617826,4737.318029,-65118.117330
269.938257,-19541.436869,6513.812290,-69714.690318
269.940841,6069.688724,10066.800811,-68182.499322
269.943425,17616.901420,-2960.823768,-72166.195912
269.946009,-19837.519246,9178.553681,-66497.089226
269.948593,-592.164754,11251.130318,-65424.555529
269.951177,-14359.995275,-2960.823768,-77682.083497
269.953761,35233.802839,5773.606348,-65271.336430
269.956345,-7994.224174,-1184.329507,-73545.167808
269.958929,-19541.436869,4293.194464,-63585.926334
269.961513,-11103.089130,8290.306550,-74004.825107
269.964097,29904.320057,2368.659014,-73545.167808
269.966681,88084.507098,13175.665768,-62819.830836
269.969264,-18357.107362,6069.688724,-65884.212828
269.971847,-52850.704259,-9326.594869,-67876.061123
269.974431,-15692.365970,1480.411884,-71400.100414
269.977014,56403.692780,7254.018232,-69714.690318
269.979597,68098.946664,-11547.212695,-68335.718422
269.982181,-24426.796086,14211.954086,-67416.403824
269.984764,-34197.514520,1184.329507,-81206.122788
269.987347,53294.827824,2072.576638,-63279.488135
269.989931,31384.731941,15544.324782,-67569.622924
269.992514,14211.954086,10362.883188,-64045.583633
269.995097,-20725.766376,8882.471304,-70940.443115
269.997680,20133.601622,9178.553681,-70174.347617
270.000264,32272.979071,-3404.947333,-66803.527426
270.002847,10066.800811,9622.677246,-73391.948708
270.005430,6365.771101,13767.830521,-62206.954438
270.008014,-28127.825796,-3849.070898,-70787.224015
270.010597,41007.409187,15248.242405,-64045.583633
270.013180,-27831.743419,20281.642811,-79061.055394
270.015764,18653.189738,-2960.823768,-62053.735338
270.018347,-16580.613101,16580.613101,-73698.386908
270.020930,592.164754,12879.583391,-70634.004916
270.023514,6809.894666,-8290.306550,-75383.797003
270.026097,12435.459826,10214.842000,-67263.184724
270.028680,1332.370696,6513.812290,-65730.993728
270.031264,-12583.501014,3256.906145,-67416.403824
270.033847,-10066.800811,9622.677246,-74617.701505
