#time,accel_x,accel_y,accel_z
46.294661,1493.121302,-2258.824534,-9169.296203
46.297045,1416.550979,1914.258080,-8939.585234
46.299429,2297.109696,2603.390989,-8575.876198
46.301814,1722.832272,2660.818731,-8958.727814
46.304198,1282.552914,-1990.828403,-9131.011042
46.306582,191.425808,-2450.250342,-9150.153622
46.308966,2105.683888,1225.125171,-9131.011042
46.311351,842.273555,1071.984525,-9341.579430
46.313735,1071.984525,-1818.545176,-9341.579430
46.316119,2297.109696,-133.998066,-8824.729749
46.318503,918.843878,2565.105827,-9245.866526
46.320888,669.990328,-1875.972918,-9379.864592
46.323272,1627.119368,-248.853550,-8575.876198
46.325656,1607.976787,1837.687757,-8882.157491
46.328116,-1225.125171,765.703232,-9360.722011
46.330577,746.560651,-516.849682,-9226.723946
46.333037,3139.383251,1856.830338,-8958.727814
46.335498,1493.121302,2239.681954,-8958.727814
46.337958,-1225.125171,-746.560651,-9322.436850
46.340418,3541.377448,765.703232,-8403.592971
46.342879,-1129.412267,-306.281293,-9379.864592
46.345339,574.277424,4019.941968,-9073.583299
46.347800,1952.543242,-1473.978722,-9150.153622
46.350260,1244.267752,2105.683888,-9016.155557
46.352721,574.277424,3732.803256,-9265.009107
46.355181,2584.248408,5149.354235,-8403.592971
46.357641,-842.273555,-2258.824534,-9743.573627
46.360102,1244.267752,-3579.662610,-8786.444587
46.362562,497.707101,976.271621,-9437.292334
46.365023,3139.383251,6163.911018,-8059.026517
46.367483,191.425808,803.988394,-9705.288466
46.369943,669.990328,-1933.400661,-8805.587168
46.372404,1741.974853,1818.545176,-8805.587168
46.374864,2277.967115,-210.568389,-9073.583299
46.377325,1167.697429,-401.994197,-9016.155557
46.379785,1703.689691,976.271621,-8748.159426
46.382245,-95.712904,823.130974,-9265.009107
46.384706,1320.838075,842.273555,-8843.872330
46.387166,1320.838075,-76.570323,-9150.153622
46.389627,516.849682,880.558717,-9092.725880
46.392087,1282.552914,1129.412267,-9284.151688
46.394548,2488.535504,765.703232,-8843.872330
46.397008,-191.425808,-401.994197,-9513.862658
46.399468,1091.127106,918.843878,-8977.870395
46.401929,1665.404530,1167.697429,-8595.018779
46.404389,-631.705166,-57.427742,-9533.005238
46.406850,2813.959378,-95.712904,-9226.723946
46.409310,2124.826469,631.705166,-8920.442653
46.411770,-95.712904,995.414202,-9207.581365
46.414231,1091.127106,-555.134843,-8997.012976
46.416691,1588.834206,-689.132909,-9226.723946
46.419152,1225.125171,459.421939,-9035.298138
46.421612,995.414202,267.996131,-8786.444587
46.424072,1339.980656,-229.710970,-8939.585234
46.426584,784.845813,210.568389,-9111.868461
46.429094,1052.841944,-133.998066,-9169.296203
46.431603,1895.115499,-593.420005,-9073.583299
46.434113,1512.263883,-1033.699363,-9341.579430
46.436623,-114.855485,153.140646,-8863.014910
46.439133,3732.803256,1780.260014,-8729.016845
46.441643,-76.570323,-3005.385186,-9322.436850
46.444153,1244.267752,1761.117434,-8729.016845
46.446663,2392.822600,-918.843878,-8977.870395
46.449173,-306.281293,708.275490,-9418.149754
46.451683,3177.668413,2411.965181,-8537.591037
46.454193,-555.134843,-1933.400661,-9609.575562
46.456703,1914.258080,3388.236802,-8288.737486
46.459213,708.275490,-937.986459,-9820.143950
46.461723,1378.265818,-2928.814862,-8748.159426
46.464233,1033.699363,3962.514226,-9207.581365
46.466743,2584.248408,2392.822600,-8288.737486
46.469253,-344.566454,650.847747,-9590.432981
46.471763,3885.943902,-1569.691626,-8365.307810
46.474273,-2105.683888,440.279358,-10222.138147
46.476783,3483.949706,1339.980656,-8212.167163
46.479293,555.134843,708.275490,-9456.434915
46.481802,650.847747,-612.562586,-9265.009107
46.484312,669.990328,267.996131,-9265.009107
46.486822,2986.242605,593.420005,-8882.157491
46.489332,516.849682,-1780.260014,-9226.723946
46.491842,899.701298,497.707101,-8920.442653
46.494352,2029.113565,1263.410333,-8882.157491
46.496862,-1014.556782,-842.273555,-9303.294269
46.499372,2488.535504,-497.707101,-9169.296203
46.501882,2756.531635,784.845813,-9150.153622
46.504392,-842.273555,899.701298,-9188.438784
46.506902,-535.992262,1875.972918,-9399.007173
46.509412,3675.375514,382.851616,-8614.161360
46.511922,-727.418070,612.562586,-9533.005238
46.514432,1799.402595,1148.554848,-8824.729749
46.516942,995.414202,516.849682,-9054.440718
46.519452,-229.710970,363.709035,-9035.298138
46.521962,2584.248408,1741.974853,-8748.159426
46.524472,1435.693560,957.129040,-9169.296203
46.527012,-803.988394,38.285162,-9647.860723
46.529552,3292.523898,2316.252277,-8461.020714
46.532093,727.418070,229.710970,-9360.722011
46.534633,401.994197,-2086.541307,-9322.436850
46.537174,-746.560651,-1569.691626,-9724.431046
46.539714,2297.109696,1550.549045,-8824.729749
46.542255,823.130974,-2029.113565,-9169.296203
46.544795,669.990328,-3943.371645,-9571.290400
46.547335,1301.695494,4709.074877,-8939.585234
46.549876,2679.961312,3751.945837,-8709.874264
46.552416,689.132909,612.562586,-8729.016845
46.554957,-803.988394,-1914.258080,-9820.143950
46.557497,3617.947771,4479.363907,-7886.743290
46.560037,2660.818731,8403.592971,-8652.446522
46.562578,2622.533570,2067.398726,-8480.163294
46.565118,325.423874,-3349.951640,-9533.005238
46.567659,1799.402595,2928.814862,-8901.300072
46.570199,133.998066,440.279358,-9475.577496
46.572739,2239.681954,784.845813,-8250.452325
46.575280,210.568389,650.847747,-9418.149754
46.577820,287.138712,-555.134843,-9111.868461
46.580361,1684.547110,1416.550979,-8977.870395
46.582901,1148.554848,1588.834206,-9131.011042
46.585441,1493.121302,-612.562586,-9169.296203
46.587982,2258.824534,995.414202,-8843.872330
46.590522,555.134843,842.273555,-9226.723946
46.593063,-1129.412267,689.132909,-8863.014910
46.595603,2048.256146,1110.269686,-9035.298138
46.598143,2679.961312,459.421939,-9226.723946
46.600684,229.710970,-478.564520,-9360.722011
46.603224,1129.412267,631.705166,-8863.014910
46.605765,1799.402595,-95.712904,-8920.442653
46.608305,363.709035,-1263.410333,-9399.007173
46.610846,976.271621,1225.125171,-9073.583299
46.613386,2392.822600,765.703232,-8575.876198
46.615926,631.705166,153.140646,-9073.583299
46.618467,363.709035,-1033.699363,-9303.294269
46.621007,1990.828403,306.281293,-8939.585234
46.623548,1971.685822,-325.423874,-9150.153622
46.626088,382.851616,210.568389,-9360.722011
46.628650,727.418070,-1646.261949,-9265.009107
46.631212,1378.265818,2239.681954,-9131.011042
46.633774,325.423874,19.142581,-9245.866526
46.636336,1971.685822,612.562586,-8748.159426
46.638897,478.564520,421.136778,-9399.007173
46.641459,823.130974,3598.805190,-8901.300072
46.644021,2756.531635,3656.232933,-8671.589102
46.646583,880.558717,535.992262,-9284.151688
46.649145,899.701298,421.136778,-8901.300072
46.651707,1167.697429,3311.666478,-8882.157491
46.654269,363.709035,-3617.947771,-9341.579430
46.656831,1971.685822,-1875.972918,-8786.444587
46.659393,1512.263883,842.273555,-9092.725880
46.661954,708.275490,344.566454,-8920.442653
46.664516,2297.109696,-823.130974,-8997.012976
46.667078,-363.709035,-1320.838075,-9686.145885
46.669640,727.418070,19.142581,-8901.300072
46.672202,2469.392923,1186.840010,-8939.585234
46.674764,2163.111630,516.849682,-8920.442653
46.677326,-823.130974,-459.421939,-9533.005238
46.679888,2009.970984,-306.281293,-8824.729749
46.682450,1780.260014,-535.992262,-8882.157491
46.685011,-363.709035,306.281293,-9092.725880
46.687573,1607.976787,-1225.125171,-9207.581365
46.690135,2947.957443,153.140646,-9150.153622
46.692697,-248.853550,516.849682,-9303.294269
46.695259,-38.285162,1607.976787,-9150.153622
46.697821,1225.125171,593.420005,-8843.872330
46.700383,1473.978722,210.568389,-9131.011042
46.702945,1435.693560,-229.710970,-8939.585234
46.705507,497.707101,1320.838075,-9073.583299
46.708068,1875.972918,1627.119368,-8958.727814
46.710630,-401.994197,459.421939,-9360.722011
46.713192,1607.976787,535.992262,-8805.587168
46.715754,2813.959378,1627.119368,-8977.870395
46.718316,-114.855485,401.994197,-9284.151688
46.720878,-957.129040,1014.556782,-9533.005238
46.723440,2641.676150,2182.254211,-8441.878133
46.726002,2163.111630,1818.545176,-8786.444587
46.728564,-2354.537438,2029.113565,-9609.575562
46.731062,3426.521963,3464.807125,-8556.733618
46.733560,2201.396792,2526.820666,-8767.302006
46.736059,-1569.691626,-7331.608446,-10164.710405
46.738557,1875.972918,3120.240670,-8441.878133
46.741055,421.136778,-976.271621,-9858.429112
46.743554,2699.103893,6489.334891,-8039.883936
46.746052,1837.687757,1091.127106,-8824.729749
46.748550,114.855485,2143.969050,-9265.009107
46.751049,229.710970,1033.699363,-8997.012976
46.753547,4804.787781,287.138712,-8518.448456
46.756045,-899.701298,2603.390989,-9590.432981
46.758544,325.423874,114.855485,-9092.725880
46.761042,2660.818731,-210.568389,-8690.731683
46.763540,-172.283227,363.709035,-9533.005238
46.766039,-76.570323,1378.265818,-9111.868461
46.768537,3273.381317,1665.404530,-8709.874264
46.771035,2756.531635,-210.568389,-8786.444587
46.773534,-957.129040,-784.845813,-9801.001370
46.776032,2182.254211,2679.961312,-8690.731683
46.778530,1244.267752,-325.423874,-8786.444587
46.781029,-1014.556782,1244.267752,-9341.579430
46.783527,2986.242605,1416.550979,-9265.009107
46.786025,2297.109696,-1320.838075,-9131.011042
46.788524,153.140646,-95.712904,-9073.583299
46.791022,1110.269686,1493.121302,-9188.438784
46.793520,631.705166,-1110.269686,-9322.436850
46.796019,2852.244539,-76.570323,-8767.302006
46.798517,1282.552914,38.285162,-8920.442653
46.801015,-555.134843,-210.568389,-9341.579430
46.803514,2545.963246,-401.994197,-8786.444587
46.806012,1071.984525,746.560651,-9169.296203
46.808510,382.851616,-631.705166,-9552.147819
46.811009,2354.537438,0.000000,-9092.725880
46.813507,1703.689691,-57.427742,-8767.302006
46.816005,1512.263883,3177.668413,-8556.733618
46.818504,535.992262,-478.564520,-9475.577496
46.821002,746.560651,382.851616,-8901.300072
46.823500,2105.683888,-191.425808,-8958.727814
46.825999,2813.959378,3139.383251,-8729.016845
46.828497,38.285162,2584.248408,-9399.007173
46.831025,1167.697429,-1205.982590,-9131.011042
46.833552,2009.970984,995.414202,-8767.302006
46.836080,38.285162,-1339.980656,-9628.718142
46.838608,1607.976787,-2986.242605,-9207.581365
46.841136,823.130974,-1263.410333,-9456.434915
46.843663,899.701298,1263.410333,-9035.298138
46.846191,2009.970984,-363.709035,-8805.587168
46.848719,516.849682,1071.984525,-9016.155557
46.851246,1435.693560,440.279358,-9437.292334
46.853774,1952.543242,-937.986459,-8997.012976
46.856302,191.425808,-555.134843,-9360.722011
46.858830,1914.258080,937.986459,-9054.440718
46.861357,1416.550979,153.140646,-8824.729749
46.863885,-248.853550,-957.129040,-9303.294269
46.866413,1148.554848,650.847747,-8863.014910
46.868940,2488.535504,-1071.984525,-8824.729749
46.871468,1282.552914,976.271621,-9609.575562
46.873996,1129.412267,95.712904,-9054.440718
46.876524,1033.699363,1071.984525,-9054.440718
46.879051,-133.998066,784.845813,-9303.294269
46.881579,2220.539373,459.421939,-8997.012976
46.884107,2048.256146,803.988394,-9035.298138
46.886634,-555.134843,76.570323,-9092.725880
46.889162,2565.105827,1627.119368,-8786.444587
46.891690,-229.710970,1722.832272,-9399.007173
46.894218,1167.697429,842.273555,-8824.729749
46.896745,3120.240670,574.277424,-8939.585234
46.899273,-382.851616,1129.412267,-9609.575562
46.901801,1320.838075,1148.554848,-9245.866526
46.904328,1837.687757,3464.807125,-8767.302006
46.906856,1091.127106,1244.267752,-9111.868461
46.909384,708.275490,535.992262,-8843.872330
46.911912,1416.550979,1435.693560,-8882.157491
46.914439,1569.691626,4307.080680,-8805.587168
46.916967,1493.121302,1167.697429,-8748.159426
46.919495,803.988394,-440.279358,-9284.151688
46.922022,478.564520,3924.229064,-8882.157491
46.924550,3235.096155,3751.945837,-8346.165229
46.927078,-2067.398726,-3560.520029,-9915.856854
46.929606,2067.398726,-1378.265818,-8786.444587
46.932155,1205.982590,2622.533570,-9150.153622
46.934705,516.849682,1186.840010,-8729.016845
46.937254,1818.545176,689.132909,-9092.725880
46.939803,1205.982590,1722.832272,-8671.589102
46.942353,-76.570323,765.703232,-9054.440718
46.944902,1435.693560,287.138712,-9016.155557
46.947452,669.990328,1282.552914,-9131.011042
46.950001,2105.683888,1014.556782,-8843.872330
46.952551,1339.980656,-95.712904,-9284.151688
46.955100,-153.140646,287.138712,-9265.009107
46.957649,363.709035,1454.836141,-8748.159426
46.960199,1071.984525,421.136778,-9245.866526
46.962748,3158.525832,-440.279358,-8920.442653
46.965298,325.423874,306.281293,-9360.722011
46.967847,765.703232,-478.564520,-9111.868461
46.970397,2488.535504,535.992262,-8805.587168
46.972946,95.712904,0.000000,-9418.149754
46.975496,1339.980656,114.855485,-9188.438784
46.978045,2833.101958,1052.841944,-8365.307810
46.980594,-1244.267752,-918.843878,-9609.575562
46.983144,-76.570323,-1493.121302,-9284.151688
46.985693,1971.685822,210.568389,-8997.012976
46.988243,1875.972918,363.709035,-9188.438784
46.990792,287.138712,76.570323,-9265.009107
46.993342,2813.959378,-3235.096155,-8997.012976
46.995891,76.570323,76.570323,-9399.007173
46.998441,229.710970,19.142581,-8977.870395
47.000990,2258.824534,937.986459,-9188.438784
47.003539,-153.140646,-4996.213589,-9552.147819
47.006089,976.271621,-382.851616,-9150.153622
47.008638,2411.965181,1339.980656,-9169.296203
47.011188,1818.545176,3388.236802,-8595.018779
47.013737,401.994197,-1607.976787,-9494.720077
47.016287,1129.412267,-4230.510357,-9226.723946
47.018836,957.129040,-153.140646,-9341.579430
47.021385,421.136778,2794.816797,-9265.009107
47.023935,-344.566454,-2105.683888,-9092.725880
47.026484,3483.949706,842.273555,-8346.165229
47.029034,-267.996131,-937.986459,-9877.571693
47.031583,1129.412267,612.562586,-9035.298138
47.034147,3311.666478,1339.980656,-8824.729749
47.036711,2411.965181,-1263.410333,-8882.157491
47.039275,-765.703232,-248.853550,-9360.722011
47.041839,2067.398726,114.855485,-8709.874264
47.044403,574.277424,689.132909,-9207.581365
47.046967,803.988394,229.710970,-9207.581365
47.049531,2450.250342,-1550.549045,-9303.294269
47.052095,1665.404530,746.560651,-8748.159426
47.054659,-1071.984525,1454.836141,-9360.722011
47.057223,2813.959378,95.712904,-8843.872330
47.059787,746.560651,2201.396792,-9226.723946
47.062351,-210.568389,555.134843,-9322.436850
47.064915,133.998066,191.425808,-9284.151688
47.067478,3254.238736,1435.693560,-8384.450390
47.070042,-248.853550,1129.412267,-9590.432981
47.072606,497.707101,-114.855485,-9303.294269
47.075170,3407.379382,1531.406464,-8518.448456
47.077734,650.847747,-306.281293,-9647.860723
47.080298,-631.705166,2143.969050,-9188.438784
47.082862,2852.244539,325.423874,-8365.307810
47.085426,1263.410333,3101.098090,-8901.300072
47.087990,899.701298,1722.832272,-9092.725880
47.090554,1741.974853,4268.795518,-8767.302006
47.093118,210.568389,-1167.697429,-9494.720077
47.095682,1167.697429,-2277.967115,-9092.725880
47.098246,1301.695494,5168.496816,-8863.014910
47.100810,3062.812928,2143.969050,-8346.165229
47.103374,-1856.830338,-1799.402595,-10183.852986
47.105938,803.988394,-3254.238736,-9188.438784
47.108502,1531.406464,2699.103893,-8786.444587
47.111065,555.134843,1301.695494,-9341.579430
47.113629,1799.402595,76.570323,-8882.157491
47.116193,2775.674216,38.285162,-8595.018779
47.118757,-823.130974,650.847747,-9552.147819
47.121321,765.703232,1282.552914,-8863.014910
47.123885,2909.672282,612.562586,-8958.727814
47.126449,-631.705166,210.568389,-9456.434915
47.129013,1914.258080,2201.396792,-8882.157491
47.131577,1301.695494,-267.996131,-8958.727814
47.134141,-535.992262,1780.260014,-9188.438784
47.136716,1588.834206,-918.843878,-9284.151688
47.139291,2182.254211,-267.996131,-9169.296203
47.141866,2297.109696,1512.263883,-8595.018779
47.144441,19.142581,1359.123237,-9303.294269
47.147016,57.427742,-421.136778,-9245.866526
47.149591,4460.221326,-708.275490,-8422.735552
47.152166,-287.138712,-957.129040,-9513.862658
47.154741,306.281293,727.418070,-9169.296203
47.157316,2201.396792,306.281293,-8748.159426
47.159891,1435.693560,-401.994197,-8863.014910
47.162466,267.996131,-306.281293,-9609.575562
47.165041,2105.683888,-478.564520,-9150.153622
47.167616,1071.984525,899.701298,-9073.583299
47.170191,1569.691626,-1186.840010,-9092.725880
47.172766,401.994197,2775.674216,-8958.727814
47.175341,842.273555,2794.816797,-8748.159426
47.177916,2488.535504,-5857.629725,-9341.579430
47.180491,-535.992262,-861.416136,-9513.862658
47.183066,1569.691626,1033.699363,-9035.298138
47.185641,3369.094221,1761.117434,-8690.731683
47.188216,-1875.972918,-2967.100024,-10260.423309
47.190791,3483.949706,-3426.521963,-8537.591037
47.193366,1129.412267,1761.117434,-9686.145885
47.195941,-842.273555,-95.712904,-9379.864592
47.198516,1244.267752,-382.851616,-9035.298138
47.201091,2545.963246,574.277424,-8901.300072
47.203666,-325.423874,-1225.125171,-9647.860723
47.206241,2431.107762,1071.984525,-8824.729749
47.208816,2009.970984,899.701298,-9092.725880
47.211391,153.140646,-1761.117434,-9379.864592
47.213967,803.988394,-210.568389,-8843.872330
47.216542,1091.127106,612.562586,-8843.872330
47.219125,1148.554848,1148.554848,-9131.011042
47.221709,1473.978722,669.990328,-9303.294269
47.224293,1205.982590,-1397.408398,-9073.583299
47.226877,1205.982590,1416.550979,-8958.727814
47.229461,-191.425808,1186.840010,-9245.866526
47.232044,2201.396792,210.568389,-9054.440718
47.234628,1493.121302,727.418070,-8824.729749
47.237212,478.564520,1512.263883,-9092.725880
47.239796,765.703232,765.703232,-9111.868461
47.242380,133.998066,746.560651,-9150.153622
47.244963,2163.111630,1225.125171,-8920.442653
47.247547,861.416136,-478.564520,-9379.864592
47.250131,689.132909,2086.541307,-9475.577496
47.252715,1741.974853,1225.125171,-8863.014910
47.255299,1646.261949,-2048.256146,-9150.153622
47.257882,-95.712904,2143.969050,-9226.723946
47.260466,1359.123237,3081.955509,-8958.727814
47.263050,2603.390989,4460.221326,-8556.733618
47.265634,-497.707101,-899.701298,-9475.577496
47.268218,1588.834206,-1780.260014,-9016.155557
47.270801,1512.263883,3598.805190,-9188.438784
47.273385,1148.554848,2947.957443,-8595.018779
47.275969,-478.564520,-4192.225195,-9724.431046
47.278553,2009.970984,210.568389,-8556.733618
47.281137,459.421939,95.712904,-9552.147819
47.283720,2507.678085,2737.389054,-8556.733618
47.286304,-363.709035,210.568389,-9781.858789
47.288888,1722.832272,1493.121302,-8499.305875
47.291472,823.130974,1665.404530,-9226.723946
47.294056,-76.570323,-19.142581,-9150.153622
47.296639,2431.107762,516.849682,-8920.442653
47.299223,1837.687757,-306.281293,-9035.298138
47.301807,-1339.980656,1263.410333,-9590.432981
47.304391,478.564520,1205.982590,-8805.587168
47.306975,1531.406464,-344.566454,-9150.153622
47.309558,2507.678085,76.570323,-9131.011042
47.312142,976.271621,-76.570323,-9437.292334
47.314726,1014.556782,995.414202,-8805.587168
47.317310,1320.838075,-823.130974,-9131.011042
47.319894,1646.261949,-497.707101,-9131.011042
47.322482,172.283227,478.564520,-9533.005238
47.325070,1741.974853,-133.998066,-8709.874264
47.327658,1550.549045,325.423874,-9016.155557
47.330247,-57.427742,-306.281293,-9379.864592
47.332835,19.142581,-555.134843,-9207.581365
47.335423,2584.248408,842.273555,-8748.159426
47.338012,1780.260014,57.427742,-9169.296203
47.340600,497.707101,-1971.685822,-9169.296203
47.343188,2431.107762,2105.683888,-8843.872330
47.345776,957.129040,2124.826469,-8748.159426
47.348365,765.703232,-1818.545176,-9245.866526
47.350953,593.420005,-880.558717,-9418.149754
47.353541,1627.119368,-1569.691626,-9073.583299
47.356129,1225.125171,-1588.834206,-9360.722011
47.358718,708.275490,-2526.820666,-9150.153622
47.361306,612.562586,-2297.109696,-9360.722011
47.363894,-344.566454,2373.680019,-9303.294269
47.366482,3292.523898,-497.707101,-8671.589102
47.369071,-306.281293,784.845813,-9418.149754
47.371659,918.843878,861.416136,-8997.012976
47.374247,2833.101958,-650.847747,-9035.298138
47.376836,-38.285162,287.138712,-9743.573627
47.379424,1665.404530,-937.986459,-9150.153622
47.382012,2641.676150,172.283227,-8595.018779
47.384600,-535.992262,1952.543242,-9131.011042
47.387189,-631.705166,746.560651,-9073.583299
47.389777,2488.535504,-1531.406464,-8939.585234
47.392365,2354.537438,535.992262,-9150.153622
47.394953,-191.425808,38.285162,-9303.294269
47.397542,1033.699363,1684.547110,-8920.442653
47.400130,1818.545176,1397.408398,-9092.725880
47.402718,918.843878,1148.554848,-9131.011042
47.405306,765.703232,459.421939,-8997.012976
47.407895,1339.980656,727.418070,-8652.446522
47.410483,1550.549045,1378.265818,-9092.725880
47.413071,-478.564520,1895.115499,-9379.864592
47.415660,1263.410333,-229.710970,-8977.870395
47.418248,3215.953574,1722.832272,-8939.585234
47.420836,-306.281293,1435.693560,-9284.151688
47.423424,861.416136,76.570323,-8748.159426
47.426016,2182.254211,2756.531635,-8824.729749
47.428607,1110.269686,1952.543242,-8901.300072
47.431199,669.990328,2928.814862,-8958.727814
47.433791,1493.121302,-3273.381317,-9245.866526
47.436382,823.130974,2775.674216,-9360.722011
47.438974,2488.535504,-229.710970,-8461.020714
47.441566,-210.568389,5264.209720,-9915.856854
47.444158,1588.834206,-6202.196179,-8958.727814
47.446749,-516.849682,497.707101,-9628.718142
47.449341,2450.250342,3541.377448,-8327.022648
47.451933,1588.834206,-2297.109696,-9418.149754
47.454524,689.132909,363.709035,-8824.729749
47.457116,133.998066,1569.691626,-9513.862658
47.459708,1933.400661,2048.256146,-8537.591037
47.462299,612.562586,-114.855485,-9456.434915
47.464891,38.285162,880.558717,-9092.725880
47.467483,1225.125171,2316.252277,-9207.581365
47.470074,2009.970984,631.705166,-8595.018779
47.472666,-995.414202,918.843878,-9245.866526
47.475258,1703.689691,-708.275490,-9284.151688
47.477849,3005.385186,-784.845813,-9188.438784
47.480441,401.994197,765.703232,-9188.438784
47.483033,306.281293,-133.998066,-9245.866526
47.485625,2009.970984,-1665.404530,-9016.155557
47.488216,1780.260014,-1244.267752,-9092.725880
47.490808,-76.570323,650.847747,-9475.577496
47.493400,2699.103893,746.560651,-8633.303941
47.495991,2143.969050,248.853550,-9131.011042
47.498583,-459.421939,-1397.408398,-9513.862658
47.501175,1588.834206,287.138712,-8958.727814
47.503766,2316.252277,976.271621,-8709.874264
47.506358,1244.267752,2756.531635,-8901.300072
47.508950,516.849682,-363.709035,-9169.296203
47.511541,2947.957443,3732.803256,-8843.872330
47.514133,-650.847747,153.140646,-9016.155557
47.516725,-114.855485,-6259.623922,-9762.716208
47.519317,2871.387120,-784.845813,-8556.733618
47.521908,555.134843,1914.258080,-9265.009107
47.524500,3081.955509,7561.319416,-8001.598774
47.527092,1014.556782,-727.418070,-9456.434915
47.529686,918.843878,-2335.394858,-8614.161360
47.532281,746.560651,133.998066,-9188.438784
47.534875,1837.687757,2277.967115,-8997.012976
47.537470,631.705166,-1244.267752,-9226.723946
47.540064,2967.100024,191.425808,-8901.300072
47.542659,-516.849682,-497.707101,-9686.145885
47.545253,2660.818731,-325.423874,-8767.302006
47.547848,1780.260014,-535.992262,-9207.581365
47.550442,401.994197,-1033.699363,-9073.583299
47.553037,133.998066,746.560651,-9092.725880
47.555631,1780.260014,1110.269686,-9284.151688
47.558226,1512.263883,133.998066,-9226.723946
47.560820,1301.695494,1282.552914,-8729.016845
47.563415,-287.138712,1397.408398,-9284.151688
47.566009,2431.107762,516.849682,-9150.153622
47.568604,1627.119368,1301.695494,-9111.868461
47.571198,-95.712904,57.427742,-9073.583299
47.573793,727.418070,-765.703232,-9111.868461
47.576387,2852.244539,1416.550979,-8518.448456
47.578982,382.851616,880.558717,-9245.866526
47.581576,76.570323,440.279358,-9437.292334
47.584171,3407.379382,2086.541307,-8786.444587
47.586765,19.142581,-95.712904,-9245.866526
47.589360,-1033.699363,1282.552914,-9475.577496
47.591954,3637.090352,1627.119368,-8288.737486
47.594549,57.427742,4039.084549,-8843.872330
47.597143,899.701298,5302.494882,-8997.012976
47.599738,1780.260014,-1512.263883,-9035.298138
47.602332,823.130974,2584.248408,-8690.731683
47.604927,1895.115499,4517.649069,-8652.446522
47.607521,-76.570323,-1856.830338,-9418.149754
47.610116,861.416136,-3349.951640,-9418.149754
47.612710,1684.547110,535.992262,-8633.303941
47.615305,-191.425808,2450.250342,-9781.858789
47.617899,2488.535504,-650.847747,-8748.159426
47.620493,516.849682,861.416136,-9303.294269
47.623088,191.425808,1435.693560,-9131.011042
47.625682,2201.396792,229.710970,-9016.155557
47.628277,382.851616,1301.695494,-9054.440718
47.630871,669.990328,2718.246474,-8997.012976
47.633467,1588.834206,-114.855485,-8748.159426
47.636062,-306.281293,1110.269686,-9092.725880
47.638657,1722.832272,267.996131,-9475.577496
47.641253,2335.394858,-306.281293,-8977.870395
47.643848,957.129040,-210.568389,-9150.153622
47.646443,440.279358,-823.130974,-9379.864592
47.649039,1263.410333,114.855485,-9111.868461
47.651634,2545.963246,-267.996131,-8977.870395
47.654229,-153.140646,-1129.412267,-9303.294269
47.656824,210.568389,-612.562586,-9322.436850
47.659420,1569.691626,248.853550,-8901.300072
47.662015,2163.111630,-459.421939,-8882.157491
47.664610,-861.416136,-995.414202,-9839.286531
47.667206,2526.820666,1091.127106,-9016.155557
47.669801,2699.103893,-2029.113565,-8786.444587
47.672396,-765.703232,1205.982590,-9360.722011
47.674991,2660.818731,2488.535504,-8767.302006
47.677587,210.568389,-4747.360038,-9628.718142
47.680182,-267.996131,-459.421939,-9169.296203
47.682777,708.275490,-3215.953574,-9245.866526
47.685373,3062.812928,5149.354235,-8231.309744
47.687968,1569.691626,-267.996131,-9399.007173
47.690563,-287.138712,-4077.369710,-9724.431046
47.693158,593.420005,1186.840010,-9035.298138
47.695754,2182.254211,-57.427742,-8863.014910
47.698349,555.134843,-650.847747,-9035.298138
47.700944,2258.824534,1014.556782,-9016.155557
47.703540,937.986459,-1378.265818,-9341.579430
47.706135,1167.697429,-669.990328,-9073.583299
47.708730,1990.828403,1071.984525,-8748.159426
47.711325,1952.543242,1033.699363,-8882.157491
47.713921,-1359.123237,-574.277424,-9552.147819
47.716516,2258.824534,-57.427742,-9016.155557
47.719111,2775.674216,-401.994197,-9035.298138
47.721707,-880.558717,1263.410333,-9265.009107
47.724302,1205.982590,1263.410333,-8901.300072
47.726897,2163.111630,191.425808,-9150.153622
47.729492,497.707101,1684.547110,-9437.292334
47.732088,1569.691626,-57.427742,-8729.016845
47.734683,516.849682,1091.127106,-8977.870395
47.737279,1952.543242,1493.121302,-8901.300072
47.739874,401.994197,784.845813,-9131.011042
47.742470,76.570323,1244.267752,-9533.005238
47.745066,3139.383251,631.705166,-8939.585234
47.747662,-153.140646,-574.277424,-9379.864592
47.750257,899.701298,669.990328,-9111.868461
47.752853,1014.556782,2143.969050,-9284.151688
47.755449,382.851616,2967.100024,-8671.589102
47.758044,631.705166,-1493.121302,-9245.866526
47.760640,2718.246474,-937.986459,-8671.589102
47.763236,-191.425808,1033.699363,-9628.718142
47.765832,1684.547110,995.414202,-8748.159426
47.768427,-478.564520,-2699.103893,-9686.145885
47.771023,1818.545176,-957.129040,-9131.011042
47.773619,95.712904,2986.242605,-9303.294269
47.776215,1895.115499,-229.710970,-8556.733618
47.778810,459.421939,976.271621,-9379.864592
47.781406,861.416136,1359.123237,-8748.159426
47.784002,1397.408398,1856.830338,-9188.438784
47.786597,1301.695494,-344.566454,-8958.727814
47.789193,1071.984525,401.994197,-9341.579430
47.791789,937.986459,842.273555,-8882.157491
47.794385,153.140646,248.853550,-9131.011042
47.796980,1052.841944,746.560651,-9131.011042
47.799576,3196.810994,248.853550,-8977.870395
47.802172,1244.267752,172.283227,-9054.440718
47.804767,0.000000,-229.710970,-9265.009107
47.807363,1875.972918,-133.998066,-8997.012976
47.809959,1416.550979,95.712904,-8977.870395
47.812555,1282.552914,516.849682,-9207.581365
47.815150,937.986459,-976.271621,-9111.868461
47.817746,1205.982590,440.279358,-8843.872330
47.820342,1301.695494,172.283227,-9035.298138
47.822937,1493.121302,421.136778,-8977.870395
47.825533,1856.830338,344.566454,-8920.442653
47.828129,689.132909,1799.402595,-9437.292334
47.830725,574.277424,-2871.387120,-9092.725880
47.833320,1282.552914,-1148.554848,-9169.296203
47.835916,1569.691626,3905.086483,-8690.731683
47.838512,2086.541307,3579.662610,-8652.446522
47.841107,287.138712,-1320.838075,-9456.434915
47.843702,-516.849682,-8997.012976,-9954.142016
47.846297,76.570323,-3292.523898,-9016.155557
47.848892,3273.381317,4766.502619,-8365.307810
47.851487,2641.676150,-2258.824534,-8958.727814
47.854082,-574.277424,-650.847747,-9801.001370
47.856677,995.414202,-727.418070,-9207.581365
47.859272,765.703232,-172.283227,-9533.005238
47.861867,2048.256146,535.992262,-8882.157491
47.864461,1263.410333,-535.992262,-9322.436850
47.867056,727.418070,-2009.970984,-9226.723946
47.869651,1416.550979,-382.851616,-8824.729749
47.872246,1799.402595,593.420005,-8958.727814
47.874841,708.275490,344.566454,-9686.145885
47.877436,2143.969050,-248.853550,-8786.444587
47.880031,708.275490,516.849682,-9016.155557
47.882626,-823.130974,1799.402595,-9341.579430
47.885221,3101.098090,1722.832272,-8748.159426
47.887816,1378.265818,1014.556782,-8977.870395
47.890411,-363.709035,-172.283227,-9284.151688
47.893006,650.847747,516.849682,-9111.868461
47.895601,2277.967115,1531.406464,-8824.729749
47.898196,76.570323,650.847747,-9265.009107
47.900791,459.421939,708.275490,-9379.864592
47.903386,2718.246474,899.701298,-8575.876198
47.905981,-765.703232,3617.947771,-9647.860723
47.908576,1818.545176,-861.416136,-8556.733618
47.911171,899.701298,-937.986459,-9054.440718
47.913766,1454.836141,5245.067139,-8614.161360
47.916361,708.275490,1148.554848,-9360.722011
47.918956,1646.261949,2373.680019,-8671.589102
47.921551,-267.996131,-4096.512291,-9896.714274
47.924146,1837.687757,0.000000,-8709.874264
47.926741,1282.552914,-1167.697429,-9418.149754
47.929336,1244.267752,2584.248408,-8901.300072
47.931931,516.849682,957.129040,-8977.870395
47.934526,1033.699363,1205.982590,-8997.012976
47.937121,1014.556782,535.992262,-8901.300072
47.939716,306.281293,861.416136,-9379.864592
47.942311,1914.258080,803.988394,-8824.729749
47.944905,1205.982590,1110.269686,-8939.585234
47.947500,631.705166,1225.125171,-9054.440718
47.950094,57.427742,478.564520,-9131.011042
47.952689,1837.687757,401.994197,-9265.009107
47.955283,3349.951640,-57.427742,-8977.870395
47.957878,1397.408398,287.138712,-9054.440718
47.960472,-746.560651,497.707101,-9360.722011
47.963067,3330.809059,-1110.269686,-8595.018779
47.965661,689.132909,248.853550,-9418.149754
47.968255,287.138712,325.423874,-9284.151688
47.970850,2239.681954,-1225.125171,-8767.302006
47.973444,-19.142581,325.423874,-9169.296203
47.976039,1263.410333,650.847747,-9188.438784
47.978633,2641.676150,-440.279358,-8920.442653
47.981228,1837.687757,-2239.681954,-9456.434915
47.983822,114.855485,-1914.258080,-9552.147819
47.986417,918.843878,-3101.098090,-9169.296203
47.989011,1186.840010,-3101.098090,-9379.864592
47.991606,2009.970984,1091.127106,-8729.016845
47.994200,535.992262,2105.683888,-9303.294269
47.996795,1741.974853,-2163.111630,-8786.444587
47.999389,995.414202,-210.568389,-9418.149754
48.001984,2067.398726,3177.668413,-8690.731683
48.004578,1091.127106,861.416136,-9092.725880
48.007173,2699.103893,-1244.267752,-8614.161360
48.009767,-650.847747,-1014.556782,-9781.858789
48.012362,1761.117434,-478.564520,-8920.442653
48.014956,1588.834206,727.418070,-8977.870395
48.017550,1512.263883,-478.564520,-9073.583299
48.020145,784.845813,-2316.252277,-9418.149754
48.022739,1895.115499,-727.418070,-8595.018779
48.025334,153.140646,2143.969050,-9341.579430
48.027928,1435.693560,669.990328,-9150.153622
48.030523,2143.969050,-2679.961312,-9188.438784
48.033117,267.996131,382.851616,-8824.729749
48.035712,-1301.695494,1569.691626,-9513.862658
48.038306,2316.252277,1186.840010,-9054.440718
48.040901,2201.396792,842.273555,-8997.012976
48.043495,-153.140646,-516.849682,-9150.153622
48.046090,19.142581,-114.855485,-9245.866526
48.048683,3254.238736,2029.113565,-8518.448456
48.051276,-229.710970,593.420005,-9303.294269
48.053870,95.712904,516.849682,-9494.720077
48.056463,2488.535504,57.427742,-9150.153622
48.059056,1684.547110,-1952.543242,-8939.585234
48.061649,1761.117434,765.703232,-8614.161360
48.064243,1148.554848,4058.227130,-8843.872330
48.066836,1531.406464,6183.053598,-8518.448456
48.069429,-421.136778,-1512.263883,-9609.575562
48.072022,1186.840010,-5321.637462,-9111.868461
48.074616,2086.541307,5398.207786,-8748.159426
48.077209,2182.254211,6183.053598,-8882.157491
48.079802,-918.843878,516.849682,-9265.009107
48.082396,1837.687757,-746.560651,-8920.442653
48.084989,612.562586,2699.103893,-9322.436850
48.087582,1550.549045,2488.535504,-8786.444587
48.090175,1933.400661,1052.841944,-8901.300072
48.092769,1148.554848,-593.420005,-9054.440718
48.095362,114.855485,-191.425808,-9245.866526
48.097955,1837.687757,2239.681954,-8671.589102
48.100549,976.271621,937.986459,-9092.725880
48.103142,191.425808,516.849682,-9092.725880
48.105735,2258.824534,38.285162,-9150.153622
48.108328,1301.695494,-765.703232,-9360.722011
48.110922,1378.265818,1454.836141,-8920.442653
48.113515,612.562586,823.130974,-8997.012976
48.116108,-95.712904,-459.421939,-9533.005238
48.118702,3732.803256,-1129.412267,-8729.016845
48.121295,689.132909,95.712904,-9188.438784
48.123888,306.281293,440.279358,-9265.009107
48.126481,2182.254211,-727.418070,-8901.300072
48.129075,-344.566454,-1512.263883,-9418.149754
48.131668,1071.984525,1186.840010,-9188.438784
48.134261,3311.666478,-3024.527766,-8958.727814
48.136855,459.421939,3005.385186,-8977.870395
48.139448,1091.127106,2354.537438,-8690.731683
48.142041,2258.824534,2277.967115,-8767.302006
48.144634,631.705166,133.998066,-9111.868461
48.147228,-114.855485,-6125.625856,-9533.005238
48.149821,957.129040,765.703232,-9111.868461
48.152413,3273.381317,1761.117434,-8709.874264
48.155006,478.564520,-1569.691626,-9284.151688
48.157599,1320.838075,880.558717,-8614.161360
48.160191,2124.826469,-957.129040,-9111.868461
48.162784,0.000000,229.710970,-9341.579430
48.165376,2660.818731,401.994197,-8843.872330
48.167969,1627.119368,-1646.261949,-9054.440718
48.170561,-650.847747,-708.275490,-9628.718142
48.173154,574.277424,-765.703232,-8843.872330
48.175746,2584.248408,1091.127106,-8863.014910
48.178339,708.275490,708.275490,-9303.294269
48.180932,861.416136,-1875.972918,-9207.581365
48.183524,1435.693560,1397.408398,-8786.444587
48.186117,-287.138712,2411.965181,-9284.151688
48.188709,1837.687757,421.136778,-9092.725880
48.191302,1818.545176,708.275490,-9054.440718
48.193894,708.275490,689.132909,-8882.157491
48.196487,-95.712904,248.853550,-9303.294269
48.199079,1875.972918,1263.410333,-8901.300072
48.201672,669.990328,421.136778,-9016.155557
48.204265,593.420005,1186.840010,-9188.438784
48.206857,2469.392923,2373.680019,-8997.012976
48.209450,2009.970984,1971.685822,-8480.163294
48.212042,229.710970,-555.134843,-9131.011042
48.214635,1397.408398,2909.672282,-9188.438784
48.217227,1952.543242,3866.801322,-8537.591037
48.219820,-1301.695494,-1148.554848,-9896.714274
48.222413,3885.943902,5091.926493,-7484.749093
48.225005,19.142581,1856.830338,-9762.716208
48.227598,1550.549045,-1473.978722,-8614.161360
48.230190,1684.547110,-2201.396792,-9322.436850
48.232783,823.130974,2641.676150,-9322.436850
48.235375,57.427742,612.562586,-9571.290400
48.237968,2756.531635,1722.832272,-8250.452325
48.240560,133.998066,-153.140646,-9686.145885
48.243153,325.423874,612.562586,-9150.153622
48.245746,2316.252277,2852.244539,-8767.302006
48.248338,1052.841944,1033.699363,-8920.442653
48.250931,-1148.554848,937.986459,-9303.294269
48.253523,1646.261949,1052.841944,-9188.438784
48.256115,3292.523898,-1359.123237,-9016.155557
48.258706,287.138712,631.705166,-9169.296203
48.261298,-95.712904,497.707101,-9265.009107
48.263889,2029.113565,-1378.265818,-9073.583299
48.266481,2316.252277,172.283227,-8920.442653
48.269073,-172.283227,842.273555,-9513.862658
48.271664,1933.400661,-344.566454,-8920.442653
48.274256,593.420005,-1129.412267,-9188.438784
48.276847,57.427742,-38.285162,-9054.440718
48.279439,2201.396792,-1014.556782,-9073.583299
48.282030,1205.982590,-2584.248408,-9552.147819
48.284622,363.709035,2565.105827,-9073.583299
48.287213,3292.523898,4402.793584,-7944.171032
48.289805,267.996131,-3273.381317,-9667.003304
48.292396,-210.568389,-2794.816797,-9360.722011
48.294988,1895.115499,-2641.676150,-9245.866526
48.297580,344.566454,-1531.406464,-9399.007173
48.300171,2067.398726,-727.418070,-8920.442653
48.302763,1990.828403,1205.982590,-8997.012976
48.305354,-995.414202,-1167.697429,-9475.577496
48.307946,2335.394858,880.558717,-8480.163294
48.310537,2833.101958,1110.269686,-8882.157491
48.313129,-746.560651,-1914.258080,-9743.573627
48.315720,1990.828403,516.849682,-8843.872330
48.318312,2565.105827,1454.836141,-8843.872330
48.320904,-1761.117434,-1378.265818,-9781.858789
48.323495,1875.972918,191.425808,-8939.585234
48.326087,3349.951640,995.414202,-8920.442653
48.328678,-306.281293,-593.420005,-9303.294269
48.331270,-38.285162,612.562586,-9284.151688
48.333861,1512.263883,76.570323,-8997.012976
48.336453,995.414202,1493.121302,-9245.866526
48.339044,1588.834206,-133.998066,-9111.868461
48.341636,1512.263883,1244.267752,-8863.014910
48.344228,229.710970,1091.127106,-9245.866526
48.346819,325.423874,229.710970,-9207.581365
48.349411,1895.115499,1569.691626,-8595.018779
48.352002,1033.699363,1225.125171,-9226.723946
48.354594,1186.840010,3426.521963,-8920.442653
48.357185,2220.539373,-153.140646,-8690.731683
48.359775,2679.961312,1512.263883,-8614.161360
48.362365,-1588.834206,-2545.963246,-9915.856854
48.364955,2622.533570,-1091.127106,-8556.733618
48.367545,1799.402595,2335.394858,-9322.436850
48.370134,-57.427742,-957.129040,-9456.434915
48.372724,229.710970,-1244.267752,-9265.009107
48.375314,2909.672282,1646.261949,-9073.583299
48.377904,-765.703232,650.847747,-9705.288466
48.380494,765.703232,535.992262,-9035.298138
48.383084,1818.545176,1014.556782,-8920.442653
48.385673,2584.248408,306.281293,-8614.161360
48.388263,-1454.836141,344.566454,-9743.573627
48.390853,1761.117434,2909.672282,-8556.733618
48.393443,2124.826469,-95.712904,-8863.014910
48.396033,-631.705166,555.134843,-9016.155557
48.398623,19.142581,76.570323,-9686.145885
48.401212,4747.360038,0.000000,-8595.018779
48.403802,210.568389,1129.412267,-9245.866526
48.406392,95.712904,-382.851616,-9207.581365
48.408982,2067.398726,-1014.556782,-8939.585234
48.411572,3503.092286,-478.564520,-8729.016845
48.414161,-918.843878,-191.425808,-9533.005238
48.416751,1320.838075,669.990328,-8939.585234
48.419341,2163.111630,-650.847747,-8958.727814
48.421931,-344.566454,-344.566454,-9073.583299
48.424521,2201.396792,-1129.412267,-9016.155557
48.427111,210.568389,-1167.697429,-9571.290400
48.429700,2105.683888,3349.951640,-8748.159426
48.432290,1799.402595,3866.801322,-8575.876198
48.434880,-95.712904,-4709.074877,-9571.290400
48.437470,937.986459,-1952.543242,-9188.438784
48.440060,2584.248408,2737.389054,-8441.878133
48.442650,861.416136,2488.535504,-8997.012976
48.445239,727.418070,-3541.377448,-9475.577496
48.447829,823.130974,-4957.928427,-8977.870395
48.450419,2756.531635,2794.816797,-9092.725880
48.453009,-306.281293,-210.568389,-9628.718142
48.455599,1263.410333,-784.845813,-8805.587168
48.458188,2660.818731,-1148.554848,-8997.012976
48.460778,727.418070,-1531.406464,-9513.862658
48.463365,765.703232,574.277424,-9150.153622
48.465954,2029.113565,1780.260014,-8997.012976
48.468543,1148.554848,-937.986459,-9475.577496
48.471131,2277.967115,-1875.972918,-8671.589102
48.473720,-95.712904,3235.096155,-9169.296203
48.476308,497.707101,2545.963246,-9150.153622
48.478897,2124.826469,248.853550,-8901.300072
48.481485,612.562586,1148.554848,-9265.009107
48.484074,1186.840010,-803.988394,-9226.723946
48.486663,1148.554848,976.271621,-8767.302006
48.489251,1320.838075,2182.254211,-9150.153622
48.491840,-612.562586,708.275490,-9418.149754
48.494428,1512.263883,-191.425808,-9150.153622
48.497017,2679.961312,3751.945837,-8843.872330
48.499605,-995.414202,-1818.545176,-9915.856854
48.502194,555.134843,-612.562586,-9131.011042
48.504783,2928.814862,421.136778,-8537.591037
48.507371,-248.853550,784.845813,-9456.434915
48.509960,1378.265818,2622.533570,-8939.585234
48.512548,1799.402595,-4364.508422,-9341.579430
48.515137,937.986459,3522.234867,-8863.014910
48.517726,1148.554848,5436.492947,-8843.872330
48.520314,1359.123237,1339.980656,-9322.436850
48.522903,1473.978722,306.281293,-8997.012976
48.525491,248.853550,918.843878,-9207.581365
48.528080,1722.832272,95.712904,-8843.872330
48.530668,382.851616,1301.695494,-9188.438784
48.533257,1378.265818,1990.828403,-8824.729749
48.535846,401.994197,765.703232,-9226.723946
48.538434,899.701298,-38.285162,-8786.444587
48.541023,612.562586,95.712904,-9533.005238
48.543611,2277.967115,784.845813,-9207.581365
48.546168,1339.980656,1014.556782,-8997.012976
48.548724,363.709035,19.142581,-9111.868461
48.551281,1186.840010,-1818.545176,-9437.292334
48.553837,2469.392923,-880.558717,-8843.872330
48.556394,76.570323,382.851616,-9379.864592
48.558950,1607.976787,114.855485,-8920.442653
48.561507,1205.982590,-497.707101,-9035.298138
48.564063,401.994197,-842.273555,-9245.866526
48.566620,2392.822600,1148.554848,-8977.870395
48.569177,669.990328,2220.539373,-8997.012976
48.571733,2124.826469,-574.277424,-9188.438784
48.574290,765.703232,-535.992262,-9207.581365
48.576846,1799.402595,3024.527766,-8671.589102
48.579403,535.992262,-2794.816797,-9705.288466
48.581959,861.416136,-3771.088418,-9150.153622
48.584516,1933.400661,5666.203917,-8556.733618
48.587072,746.560651,4134.797453,-8958.727814
48.589629,2163.111630,-3235.096155,-9226.723946
48.592185,363.709035,1990.828403,-9092.725880
48.594742,2775.674216,842.273555,-8805.587168
48.597298,784.845813,-1741.974853,-9379.864592
48.599855,1091.127106,-440.279358,-9245.866526
48.602411,976.271621,1129.412267,-8958.727814
48.604968,765.703232,248.853550,-9016.155557
48.607524,2239.681954,-784.845813,-9073.583299
48.610081,497.707101,325.423874,-9226.723946
48.612637,1110.269686,1416.550979,-8958.727814
48.615194,1665.404530,1014.556782,-8748.159426
48.617751,-1167.697429,95.712904,-9494.720077
48.620307,2565.105827,957.129040,-9054.440718
48.622864,2852.244539,803.988394,-8709.874264
48.625420,-1033.699363,631.705166,-9207.581365
48.627977,0.000000,1416.550979,-9552.147819
48.630533,1301.695494,401.994197,-8633.303941
48.633090,1435.693560,2775.674216,-8652.446522
48.635646,1052.841944,-1588.834206,-9418.149754
48.638203,1780.260014,229.710970,-8958.727814
48.640759,1397.408398,-2316.252277,-9016.155557
48.643316,325.423874,3866.801322,-9303.294269
48.645872,1512.263883,2086.541307,-8671.589102
48.648433,937.986459,1205.982590,-9207.581365
48.650993,995.414202,-2048.256146,-9150.153622
48.653554,1933.400661,880.558717,-8863.014910
48.656114,1512.263883,2928.814862,-9226.723946
48.658675,344.566454,440.279358,-9265.009107
48.661235,1244.267752,1110.269686,-8863.014910
48.663796,1569.691626,689.132909,-8997.012976
48.666356,899.701298,95.712904,-9073.583299
48.668917,1110.269686,899.701298,-9188.438784
48.671477,1473.978722,2029.113565,-8709.874264
48.674038,38.285162,612.562586,-9169.296203
48.676598,918.843878,-191.425808,-9092.725880
48.679159,976.271621,1091.127106,-9207.581365
48.681719,574.277424,95.712904,-9437.292334
48.684279,1780.260014,-401.994197,-8882.157491
48.686840,1225.125171,1110.269686,-8939.585234
48.689400,-344.566454,-1129.412267,-9475.577496
48.691961,3713.660675,-497.707101,-8556.733618
48.694521,-267.996131,19.142581,-9513.862658
48.697082,421.136778,-516.849682,-9284.151688
48.699642,2871.387120,95.712904,-8652.446522
48.702203,306.281293,-689.132909,-9399.007173
48.704763,937.986459,-1454.836141,-9437.292334
48.707324,344.566454,803.988394,-9226.723946
48.709884,1627.119368,1282.552914,-9303.294269
48.712445,727.418070,-4728.217458,-9341.579430
48.715005,976.271621,76.570323,-9016.155557
48.717566,1895.115499,3349.951640,-9131.011042
48.720126,1110.269686,-3541.377448,-9379.864592
48.722687,-363.709035,-3656.232933,-9590.432981
48.725247,2431.107762,2143.969050,-8882.157491
48.727808,1397.408398,555.134843,-9303.294269
48.730368,1359.123237,-1320.838075,-8958.727814
48.732929,1359.123237,-1512.263883,-9188.438784
48.735489,861.416136,-1033.699363,-9207.581365
48.738050,1282.552914,1588.834206,-8977.870395
48.740610,1378.265818,-1225.125171,-8767.302006
48.743171,727.418070,-899.701298,-9456.434915
48.745731,1684.547110,1761.117434,-9111.868461
48.748292,765.703232,-1435.693560,-9111.868461
48.750855,1378.265818,861.416136,-8920.442653
48.753419,-1416.550979,1856.830338,-9609.575562
48.755983,2947.957443,574.277424,-8729.016845
48.758547,1627.119368,1588.834206,-8901.300072
48.761111,669.990328,555.134843,-8977.870395
48.763675,-1071.984525,842.273555,-9341.579430
48.766239,3617.947771,1703.689691,-8633.303941
48.768803,440.279358,287.138712,-9341.579430
48.771367,-535.992262,2813.959378,-9437.292334
48.773931,3349.951640,3349.951640,-8480.163294
48.776495,1186.840010,0.000000,-8824.729749
48.779059,459.421939,4670.789715,-9092.725880
48.781623,1454.836141,746.560651,-8958.727814
48.784187,612.562586,325.423874,-8997.012976
48.786751,899.701298,-2967.100024,-9456.434915
48.789315,2507.678085,5091.926493,-8173.882002
48.791879,325.423874,5225.924558,-9303.294269
48.794443,2258.824534,-3005.385186,-9035.298138
48.797007,478.564520,2469.392923,-8997.012976
48.799571,344.566454,1895.115499,-9379.864592
48.802135,1473.978722,555.134843,-8805.587168
48.804699,2105.683888,-57.427742,-8709.874264
48.807262,-555.134843,1320.838075,-9284.151688
48.809826,1569.691626,1205.982590,-8786.444587
48.812390,2048.256146,1301.695494,-8920.442653
48.814954,2086.541307,1244.267752,-9303.294269
48.817518,421.136778,-2124.826469,-9475.577496
48.820082,2297.109696,-95.712904,-8709.874264
48.822646,1033.699363,1569.691626,-8997.012976
48.825210,-210.568389,-1071.984525,-9341.579430
48.827774,3579.662610,133.998066,-8805.587168
48.830338,287.138712,-1263.410333,-9245.866526
48.832902,-382.851616,-172.283227,-9418.149754
48.835466,2947.957443,1129.412267,-8882.157491
48.838030,1684.547110,0.000000,-8212.167163
48.840594,191.425808,1359.123237,-9590.432981
48.843158,191.425808,-1971.685822,-9399.007173
48.845722,2833.101958,3751.945837,-8461.020714
48.848286,918.843878,1895.115499,-8958.727814
48.850850,38.285162,114.855485,-9303.294269
48.853416,2220.539373,2277.967115,-8575.876198
48.855982,631.705166,478.564520,-9169.296203
48.858548,612.562586,-4632.504554,-9265.009107
48.861115,1990.828403,-2258.824534,-8958.727814
48.863681,325.423874,153.140646,-9475.577496
48.866247,114.855485,229.710970,-9475.577496
48.868813,2067.398726,-133.998066,-8997.012976
48.871379,1933.400661,-1818.545176,-8920.442653
48.873946,727.418070,689.132909,-9131.011042
48.876512,612.562586,746.560651,-9054.440718
48.879078,2201.396792,267.996131,-9150.153622
48.881644,689.132909,-478.564520,-9399.007173
48.884210,995.414202,478.564520,-8767.302006
48.886777,937.986459,1397.408398,-9073.583299
48.889343,861.416136,57.427742,-9418.149754
48.891909,689.132909,937.986459,-9418.149754
48.894475,363.709035,440.279358,-9188.438784
48.897041,1225.125171,574.277424,-8901.300072
48.899608,1320.838075,1473.978722,-9016.155557
48.902174,-382.851616,1435.693560,-9131.011042
48.904740,2086.541307,-727.418070,-8920.442653
48.907306,1071.984525,1512.263883,-9360.722011
48.909872,669.990328,1990.828403,-9111.868461
48.912439,1454.836141,4536.791650,-8595.018779
48.915005,1397.408398,-842.273555,-8977.870395
48.917571,-459.421939,-3924.229064,-9801.001370
48.920137,2852.244539,784.845813,-7618.747158
48.922704,114.855485,6527.620053,-9915.856854
48.925270,1339.980656,-1378.265818,-9265.009107
48.927836,38.285162,-76.570323,-9341.579430
48.930402,1473.978722,1914.258080,-8690.731683
48.932968,-287.138712,1282.552914,-9762.716208
48.935535,3694.518094,1359.123237,-7944.171032
48.938101,-861.416136,-995.414202,-9820.143950
48.940667,459.421939,344.566454,-8863.014910
48.943233,2239.681954,1627.119368,-8863.014910
48.945799,2182.254211,2699.103893,-8614.161360
48.948366,1167.697429,497.707101,-9724.431046
48.950932,1971.685822,-1627.119368,-9226.723946
48.953498,1607.976787,516.849682,-8958.727814
48.956066,-421.136778,2009.970984,-9188.438784
48.958635,1110.269686,-459.421939,-9111.868461
48.961203,4096.512291,-1167.697429,-8843.872330
48.963772,-1014.556782,-1684.547110,-9590.432981
48.966340,363.709035,1225.125171,-9131.011042
48.968909,3024.527766,-1071.984525,-8882.157491
48.971477,133.998066,1856.830338,-8920.442653
48.974045,669.990328,-2143.969050,-9571.290400
48.976614,1244.267752,-2833.101958,-9418.149754
48.979182,689.132909,-3158.525832,-9360.722011
48.981751,1875.972918,1071.984525,-8939.585234
48.984319,1780.260014,1052.841944,-9035.298138
48.986888,918.843878,2660.818731,-8786.444587
48.989456,1359.123237,708.275490,-9111.868461
48.992024,1856.830338,382.851616,-8920.442653
48.994593,-1646.261949,-861.416136,-9609.575562
48.997161,4536.791650,2029.113565,-8078.169098
48.999730,3771.088418,287.138712,-8767.302006
49.002298,248.853550,-1110.269686,-9571.290400
49.004866,-248.853550,114.855485,-9475.577496
49.007435,3407.379382,-535.992262,-8480.163294
49.010003,861.416136,19.142581,-9303.294269
49.012572,95.712904,784.845813,-9533.005238
49.015140,3005.385186,-1627.119368,-8729.016845
49.017709,612.562586,1282.552914,-8805.587168
49.020277,-2239.681954,1799.402595,-9667.003304
49.022845,3771.088418,516.849682,-8882.157491
49.025414,3158.525832,1014.556782,-8729.016845
49.027982,210.568389,-363.709035,-9092.725880
49.030551,-1091.127106,823.130974,-9628.718142
49.033119,3637.090352,1722.832272,-8365.307810
49.035688,440.279358,2641.676150,-8997.012976
49.038256,133.998066,-1627.119368,-9379.864592
49.040824,2699.103893,2584.248408,-8843.872330
49.043393,2163.111630,4441.078746,-8595.018779
49.045961,-631.705166,57.427742,-9418.149754
49.048530,957.129040,-1607.976787,-9188.438784
49.051098,1301.695494,-8441.878133,-9341.579430
49.053666,918.843878,-937.986459,-9456.434915
49.056235,1914.258080,3464.807125,-8499.305875
49.058805,1091.127106,2124.826469,-9322.436850
49.061376,899.701298,-76.570323,-9188.438784
49.063946,-114.855485,861.416136,-9475.577496
49.066516,1225.125171,1550.549045,-8690.731683
49.069086,1856.830338,593.420005,-8920.442653
49.071657,478.564520,803.988394,-9150.153622
49.074227,248.853550,57.427742,-9111.868461
49.076797,1378.265818,2067.398726,-8671.589102
49.079368,3215.953574,1052.841944,-9341.579430
49.081938,593.420005,-861.416136,-9533.005238
49.084508,1320.838075,1435.693560,-8767.302006
49.087079,1761.117434,497.707101,-8843.872330
49.089649,248.853550,-1397.408398,-9418.149754
49.092219,2488.535504,-650.847747,-8977.870395
49.094790,746.560651,-669.990328,-9092.725880
49.097360,-229.710970,-172.283227,-9475.577496
49.099930,2392.822600,-229.710970,-8671.589102
49.102501,2124.826469,-1167.697429,-8901.300072
49.105071,-1569.691626,957.129040,-9360.722011
49.107641,937.986459,2699.103893,-9016.155557
49.110212,2201.396792,-459.421939,-8518.448456
49.112782,325.423874,-306.281293,-9437.292334
49.115352,669.990328,-2986.242605,-9207.581365
49.117922,1684.547110,2833.101958,-8843.872330
49.120493,2431.107762,-114.855485,-9131.011042
49.123063,574.277424,-2048.256146,-9035.298138
49.125633,1665.404530,1761.117434,-8805.587168
49.128204,1320.838075,-172.283227,-9322.436850
49.130774,995.414202,-1091.127106,-9016.155557
49.133344,1722.832272,-267.996131,-9111.868461
49.135915,2603.390989,267.996131,-8614.161360
49.138485,-861.416136,689.132909,-9590.432981
49.141055,2048.256146,593.420005,-8977.870395
49.143626,3158.525832,-1129.412267,-8920.442653
49.146196,-1033.699363,1703.689691,-9131.011042
49.148766,593.420005,861.416136,-9360.722011
49.151337,1493.121302,-382.851616,-8920.442653
49.153907,937.986459,957.129040,-9456.434915
49.156477,1952.543242,210.568389,-8920.442653
49.159048,746.560651,1167.697429,-8901.300072
49.161592,976.271621,1837.687757,-9131.011042
49.164137,650.847747,1320.838075,-9035.298138
49.166682,1186.840010,-287.138712,-8824.729749
49.169227,823.130974,880.558717,-9647.860723
49.171771,1052.841944,2220.539373,-9054.440718
49.174316,1607.976787,535.992262,-8767.302006
49.176861,-210.568389,-2947.957443,-9609.575562
49.179405,2316.252277,3579.662610,-8461.020714
49.181950,1454.836141,6259.623922,-8843.872330
49.184495,-689.132909,3771.088418,-9016.155557
49.187040,306.281293,-2833.101958,-9437.292334
49.189584,1569.691626,1856.830338,-9169.296203
49.192129,1033.699363,1818.545176,-9226.723946
49.194674,1263.410333,574.277424,-8977.870395
49.197219,918.843878,555.134843,-8997.012976
49.199763,19.142581,1167.697429,-8997.012976
49.202308,1856.830338,1646.261949,-8786.444587
49.204853,689.132909,1607.976787,-8767.302006
49.207398,-19.142581,-210.568389,-9647.860723
49.209942,2986.242605,-287.138712,-9131.011042
49.212487,2909.672282,-555.134843,-8575.876198
49.215032,-535.992262,937.986459,-9513.862658
49.217577,976.271621,-1167.697429,-9207.581365
49.220121,3924.229064,-19.142581,-8729.016845
49.222666,-1244.267752,19.142581,-9571.290400
49.225211,1320.838075,-172.283227,-8958.727814
49.227756,3522.234867,382.851616,-8556.733618
49.230300,-1263.410333,-516.849682,-9571.290400
49.232845,727.418070,1512.263883,-8977.870395
49.235390,3637.090352,2871.387120,-8824.729749
49.237935,-612.562586,-267.996131,-9016.155557
49.240479,-401.994197,-8958.727814,-10011.569758
49.243024,1225.125171,-918.843878,-9169.296203
49.245569,2086.541307,6163.911018,-8480.163294
49.248114,1780.260014,1378.265818,-8920.442653
49.250658,210.568389,-5953.342629,-9456.434915
49.253203,2143.969050,1837.687757,-8595.018779
49.255748,1205.982590,1186.840010,-9628.718142
49.258292,459.421939,-1225.125171,-9150.153622
49.260837,2679.961312,-727.418070,-8863.014910
49.263387,1627.119368,191.425808,-8939.585234
49.265937,325.423874,861.416136,-9188.438784
49.268487,1856.830338,-1205.982590,-9322.436850
49.271037,2067.398726,-1167.697429,-9016.155557
49.273588,191.425808,3005.385186,-8748.159426
49.276138,-440.279358,1837.687757,-9207.581365
49.278688,2431.107762,-114.855485,-8997.012976
49.281238,1282.552914,2603.390989,-9111.868461
49.283788,593.420005,478.564520,-9131.011042
49.286338,1148.554848,803.988394,-9035.298138
49.288888,1378.265818,1320.838075,-8863.014910
49.291438,-1359.123237,803.988394,-9552.147819
49.293988,1512.263883,4058.227130,-8729.016845
49.296538,2373.680019,-2182.254211,-9245.866526
49.299088,-669.990328,-708.275490,-9686.145885
49.301638,1186.840010,823.130974,-8920.442653
49.304188,2258.824534,1741.974853,-8882.157491
49.306738,669.990328,3713.660675,-9092.725880
49.309289,516.849682,880.558717,-8901.300072
49.311839,937.986459,-708.275490,-9552.147819
49.314389,1033.699363,1148.554848,-8767.302006
49.316939,1378.265818,880.558717,-8863.014910
49.319489,2813.959378,823.130974,-8843.872330
49.322039,-133.998066,-478.564520,-9303.294269
49.324589,-210.568389,2411.965181,-9054.440718
49.327139,2258.824534,382.851616,-8652.446522
49.329689,344.566454,-191.425808,-9016.155557
49.332239,-440.279358,172.283227,-9552.147819
49.334789,4192.225195,861.416136,-8882.157491
49.337339,1569.691626,95.712904,-9207.581365
49.339889,-363.709035,765.703232,-9188.438784
49.342439,1933.400661,555.134843,-8977.870395
49.344989,1205.982590,497.707101,-9073.583299
49.347540,1091.127106,229.710970,-9150.153622
49.350090,2852.244539,-765.703232,-8518.448456
49.352640,95.712904,-229.710970,-9475.577496
49.355190,133.998066,-1722.832272,-9245.866526
49.357740,2239.681954,2009.970984,-8863.014910
49.360290,1320.838075,133.998066,-9284.151688
49.362840,1397.408398,5589.633594,-8786.444587
49.365395,631.705166,-2488.535504,-9035.298138
49.367949,401.994197,-4804.787781,-9131.011042
49.370504,2048.256146,-5819.344563,-9399.007173
49.373059,-229.710970,-2584.248408,-9188.438784
49.375614,344.566454,4383.651003,-9475.577496
49.378169,4192.225195,-1071.984525,-8365.307810
49.380723,-76.570323,-976.271621,-9379.864592
49.383278,-325.423874,-459.421939,-9303.294269
49.385833,2833.101958,-1014.556782,-9188.438784
49.388388,2775.674216,669.990328,-8537.591037
49.390942,-2105.683888,-689.132909,-9896.714274
49.393497,2277.967115,-382.851616,-9073.583299
49.396052,3196.810994,555.134843,-8920.442653
49.398607,267.996131,1167.697429,-8671.589102
49.401162,-1454.836141,1493.121302,-9590.432981
49.403716,3924.229064,497.707101,-8595.018779
49.406271,1033.699363,2584.248408,-9188.438784
49.408826,-516.849682,267.996131,-9437.292334
49.411381,1990.828403,689.132909,-8729.016845
49.413935,727.418070,899.701298,-8997.012976
49.416490,-133.998066,1703.689691,-9073.583299
49.419045,3101.098090,1301.695494,-8480.163294
49.421600,1033.699363,1301.695494,-9207.581365
49.424154,478.564520,3675.375514,-8977.870395
49.426709,306.281293,-267.996131,-9226.723946
49.429264,1799.402595,-497.707101,-8671.589102
49.431819,689.132909,1339.980656,-9379.864592
49.434374,1761.117434,3790.230998,-8346.165229
49.436928,-937.986459,2986.242605,-9762.716208
49.439483,2794.816797,-1454.836141,-8748.159426
49.442038,-267.996131,2201.396792,-9571.290400
49.444593,1454.836141,1933.400661,-8843.872330
49.447147,1607.976787,229.710970,-9054.440718
49.449702,325.423874,1416.550979,-9073.583299
49.452257,-459.421939,421.136778,-8958.727814
49.454812,2545.963246,784.845813,-8729.016845
49.457366,1244.267752,631.705166,-9437.292334
49.459921,1186.840010,-1339.980656,-9437.292334
49.462476,2603.390989,1186.840010,-8729.016845
49.465031,-19.142581,-76.570323,-9494.720077
49.467591,574.277424,-2048.256146,-9131.011042
49.470150,2813.959378,765.703232,-8920.442653
49.472708,38.285162,267.996131,-9399.007173
49.475267,2086.541307,-267.996131,-8748.159426
49.477826,2756.531635,1301.695494,-8595.018779
49.480385,1129.412267,-2737.389054,-9054.440718
49.482944,-229.710970,2105.683888,-9188.438784
49.485503,3713.660675,2603.390989,-8403.592971
49.488061,1359.123237,-1148.554848,-9150.153622
49.490620,-708.275490,-1359.123237,-9475.577496
49.493179,2469.392923,823.130974,-8863.014910
49.495738,1397.408398,-976.271621,-8920.442653
49.498297,-689.132909,-4728.217458,-9705.288466
49.500856,2565.105827,-1129.412267,-8729.016845
49.503415,1780.260014,-210.568389,-8748.159426
49.505973,210.568389,401.994197,-9322.436850
49.508532,784.845813,-1703.689691,-9284.151688
49.511091,3215.953574,153.140646,-8614.161360
49.513650,-497.707101,2411.965181,-9341.579430
49.516209,1607.976787,-650.847747,-8958.727814
49.518768,2947.957443,191.425808,-8863.014910
49.521327,-401.994197,2297.109696,-9092.725880
49.523885,440.279358,344.566454,-8977.870395
49.526444,1665.404530,248.853550,-8958.727814
49.529003,1129.412267,1856.830338,-9399.007173
49.531562,172.283227,-229.710970,-9131.011042
49.534121,1952.543242,2048.256146,-8748.159426
49.536680,210.568389,516.849682,-9284.151688
49.539239,746.560651,1071.984525,-8939.585234
49.541797,2507.678085,-1665.404530,-8690.731683
49.544356,-57.427742,2641.676150,-9494.720077
49.546915,1435.693560,3866.801322,-8939.585234
49.549474,3081.955509,4881.358104,-8365.307810
49.552033,-1473.978722,1167.697429,-9399.007173
49.554592,976.271621,-5800.201982,-9303.294269
49.557150,-440.279358,-3464.807125,-9743.573627
49.559709,1454.836141,-803.988394,-8824.729749
49.562268,1263.410333,3541.377448,-9533.005238
49.564827,1722.832272,-57.427742,-8977.870395
49.567386,-823.130974,535.992262,-9265.009107
49.569948,3235.096155,650.847747,-8556.733618
49.572509,-555.134843,746.560651,-9437.292334
49.575071,708.275490,229.710970,-8671.589102
49.577633,1493.121302,1914.258080,-8882.157491
49.580195,574.277424,-306.281293,-9360.722011
49.582756,2258.824534,-210.568389,-9686.145885
49.585318,2565.105827,976.271621,-8729.016845
49.587880,133.998066,765.703232,-9379.864592
49.590442,612.562586,-842.273555,-9092.725880
49.593004,3541.377448,-1952.543242,-8843.872330
49.595565,-1110.269686,669.990328,-9533.005238
49.598127,1741.974853,248.853550,-8671.589102
49.600689,2890.529701,-516.849682,-8729.016845
49.603251,-937.986459,1493.121302,-9781.858789
49.605812,823.130974,-2756.531635,-9035.298138
49.608374,3349.951640,-1952.543242,-8958.727814
49.610936,1550.549045,516.849682,-9092.725880
49.613498,-38.285162,-114.855485,-9207.581365
49.616059,2124.826469,4957.928427,-8288.737486
49.618621,823.130974,-2526.820666,-9494.720077
49.621183,2086.541307,-1186.840010,-8709.874264
49.623745,-1397.408398,2086.541307,-9456.434915
49.626306,4192.225195,-937.986459,-8269.594906
49.628868,1186.840010,-363.709035,-9456.434915
49.631430,-689.132909,612.562586,-9513.862658
49.633992,2297.109696,-555.134843,-8767.302006
49.636554,3866.801322,-1052.841944,-8709.874264
49.639115,1320.838075,344.566454,-9360.722011
49.641677,-497.707101,-574.277424,-9284.151688
49.644239,1971.685822,2507.678085,-8537.591037
49.646801,-210.568389,1473.978722,-9284.151688
49.649362,1225.125171,267.996131,-9360.722011
49.651924,1722.832272,2411.965181,-9035.298138
49.654486,1780.260014,-727.418070,-8843.872330
49.657048,-784.845813,1167.697429,-9379.864592
49.659609,1703.689691,1799.402595,-8882.157491
49.662171,248.853550,229.710970,-9035.298138
49.664733,2354.537438,1684.547110,-8441.878133
49.667295,2526.820666,76.570323,-9073.583299
49.669856,593.420005,3388.236802,-9016.155557
49.672421,363.709035,1875.972918,-9245.866526
49.674986,2679.961312,267.996131,-8518.448456
49.677550,210.568389,2105.683888,-9092.725880
49.680115,306.281293,306.281293,-9360.722011
49.682679,2201.396792,-937.986459,-8709.874264
49.685244,401.994197,1435.693560,-9379.864592
49.687808,1435.693560,1512.263883,-8997.012976
49.690373,2258.824534,267.996131,-8843.872330
49.692937,267.996131,2105.683888,-9169.296203
49.695502,-440.279358,-287.138712,-8939.585234
49.698066,1531.406464,2373.680019,-8824.729749
49.700631,1512.263883,-19.142581,-9360.722011
49.703196,1378.265818,-1454.836141,-9379.864592
49.705760,2507.678085,1263.410333,-8997.012976
49.708325,-19.142581,-401.994197,-9360.722011
49.710889,2048.256146,-2392.822600,-8977.870395
49.713454,1033.699363,497.707101,-9322.436850
49.716018,-267.996131,-746.560651,-9322.436850
49.718583,1301.695494,76.570323,-8958.727814
49.721147,2928.814862,-267.996131,-9035.298138
49.723712,-727.418070,-4268.795518,-9571.290400
49.726276,3311.666478,5264.209720,-8346.165229
49.728841,1339.980656,2124.826469,-9226.723946
49.731406,-287.138712,-6661.618118,-9934.999435
49.733970,1263.410333,-2009.970984,-8824.729749
49.736535,631.705166,-4077.369710,-9628.718142
49.739099,1780.260014,1205.982590,-8652.446522
49.741664,2297.109696,2239.681954,-9150.153622
49.744228,2565.105827,-2565.105827,-8652.446522
49.746793,-1071.984525,-918.843878,-9609.575562
49.749357,3771.088418,1588.834206,-8403.592971
49.751922,1761.117434,746.560651,-9092.725880
49.754488,-746.560651,-421.136778,-9437.292334
49.757055,1933.400661,325.423874,-9016.155557
49.759621,2584.248408,-382.851616,-8939.585234
49.762187,-267.996131,478.564520,-9245.866526
49.764754,1397.408398,1359.123237,-8920.442653
49.767320,-287.138712,421.136778,-9188.438784
49.769886,2335.394858,1110.269686,-8901.300072
49.772453,1205.982590,1397.408398,-9207.581365
49.775019,-57.427742,2316.252277,-9054.440718
49.777585,1588.834206,-95.712904,-8958.727814
49.780152,1971.685822,1378.265818,-8709.874264
49.782718,-1416.550979,3369.094221,-9552.147819
49.785284,2852.244539,708.275490,-8556.733618
49.787851,2297.109696,1933.400661,-8920.442653
49.790417,-918.843878,-1320.838075,-9801.001370
49.792983,2029.113565,-1263.410333,-8709.874264
49.795550,1339.980656,1071.984525,-9207.581365
49.798116,2297.109696,5072.783912,-8020.741355
49.800682,-631.705166,1569.691626,-9781.858789
49.803249,1473.978722,-842.273555,-8614.161360
49.805815,3215.953574,2909.672282,-8690.731683
49.808382,210.568389,38.285162,-9188.438784
49.810948,-248.853550,1225.125171,-9418.149754
49.813514,2813.959378,1397.408398,-8231.309744
49.816081,-1588.834206,535.992262,-9303.294269
49.818647,746.560651,976.271621,-9073.583299
49.821213,3885.943902,95.712904,-8977.870395
49.823780,459.421939,-114.855485,-9667.003304
49.826346,229.710970,-765.703232,-9322.436850
49.828912,2450.250342,-401.994197,-8767.302006
49.831479,1071.984525,1205.982590,-9016.155557
49.834045,957.129040,-784.845813,-9303.294269
49.836611,2143.969050,-1454.836141,-8595.018779
49.839178,-937.986459,287.138712,-9896.714274
49.841744,2584.248408,3139.383251,-8269.594906
49.844310,2048.256146,172.283227,-9226.723946
49.846877,-803.988394,2124.826469,-9494.720077
49.849443,2507.678085,-2545.963246,-8997.012976
49.852009,1493.121302,248.853550,-8977.870395
49.854576,1244.267752,76.570323,-8843.872330
49.857144,-1110.269686,-1741.974853,-9781.858789
49.859711,2852.244539,-2928.814862,-8805.587168
49.862279,-19.142581,-133.998066,-9609.575562
49.864847,1110.269686,-1359.123237,-9092.725880
49.867415,2947.957443,784.845813,-8882.157491
49.869983,440.279358,-842.273555,-9494.720077
49.872551,76.570323,0.000000,-9169.296203
49.875118,2373.680019,823.130974,-8767.302006
49.877686,2411.965181,133.998066,-9111.868461
49.880254,-650.847747,-1990.828403,-9456.434915
49.882822,1837.687757,1971.685822,-8633.303941
49.885390,-842.273555,1856.830338,-9456.434915
49.887958,1875.972918,1359.123237,-9131.011042
49.890526,2794.816797,1722.832272,-8939.585234
49.893093,-325.423874,-555.134843,-9303.294269
49.895661,229.710970,746.560651,-9245.866526
49.898229,2718.246474,1359.123237,-8518.448456
49.900797,-1033.699363,1397.408398,-9590.432981
49.903365,1493.121302,172.283227,-9054.440718
49.905933,1684.547110,-2105.683888,-9207.581365
49.908500,1856.830338,6853.043926,-8365.307810
49.911068,861.416136,5895.914886,-8997.012976
49.913636,1033.699363,-1722.832272,-8863.014910
49.916204,-631.705166,-3885.943902,-9954.142016
49.918772,3139.383251,229.710970,-8537.591037
49.921340,-1282.552914,4938.785846,-9839.286531
49.923907,2507.678085,-1684.547110,-8977.870395
49.926475,1416.550979,440.279358,-8920.442653
49.929043,-172.283227,2220.539373,-9054.440718
49.931611,344.566454,421.136778,-9284.151688
49.934179,1971.685822,803.988394,-8365.307810
49.936747,-995.414202,669.990328,-9686.145885
49.939314,3732.803256,-1225.125171,-8767.302006
49.941882,1339.980656,1359.123237,-9379.864592
49.944450,153.140646,38.285162,-9207.581365
49.947018,2833.101958,-555.134843,-8709.874264
49.949586,459.421939,1167.697429,-9303.294269
49.952154,1033.699363,-2297.109696,-9379.864592
49.954721,2105.683888,-172.283227,-8652.446522
49.957289,1110.269686,1129.412267,-8958.727814
49.959859,1033.699363,-1627.119368,-9150.153622
49.962428,2009.970984,1014.556782,-8824.729749
49.964997,287.138712,-3311.666478,-9858.429112
49.967567,1741.974853,-2239.681954,-9054.440718
49.970136,1359.123237,6068.198114,-8748.159426
49.972705,1033.699363,2909.672282,-9073.583299
49.975275,2048.256146,-7484.749093,-9399.007173
49.977844,-1071.984525,-287.138712,-9418.149754
49.980413,1761.117434,1971.685822,-8939.585234
49.982983,2603.390989,1320.838075,-9169.296203
49.985552,631.705166,-1837.687757,-9150.153622
49.988122,3005.385186,229.710970,-8595.018779
49.990691,-842.273555,114.855485,-9647.860723
49.993260,2641.676150,133.998066,-9016.155557
49.995830,2718.246474,-593.420005,-8709.874264
49.998399,-899.701298,1320.838075,-9245.866526
50.000968,401.994197,1818.545176,-8997.012976
50.003538,1741.974853,593.420005,-8729.016845
50.006107,746.560651,555.134843,-9552.147819
50.008676,2737.389054,1091.127106,-8709.874264
50.011246,1339.980656,1052.841944,-8977.870395
50.013815,-689.132909,-153.140646,-9724.431046
50.016384,2756.531635,3541.377448,-8499.305875
50.018954,478.564520,2890.529701,-8824.729749
50.021523,1033.699363,-1435.693560,-9207.581365
50.024092,2335.394858,3388.236802,-8824.729749
50.026662,612.562586,1895.115499,-9131.011042
50.029231,765.703232,3751.945837,-8805.587168
50.031800,1588.834206,516.849682,-8939.585234
50.034370,1684.547110,1454.836141,-8690.731683
50.036939,-76.570323,1722.832272,-9494.720077
50.039508,2086.541307,1263.410333,-8824.729749
50.042078,1780.260014,1033.699363,-9035.298138
50.044647,-172.283227,1205.982590,-9188.438784
50.047217,344.566454,899.701298,-9150.153622
50.049786,1856.830338,-727.418070,-8441.878133
50.052355,-918.843878,1397.408398,-9533.005238
50.054925,2411.965181,-95.712904,-9226.723946
50.057494,2048.256146,-1129.412267,-9207.581365
50.060063,1588.834206,1435.693560,-8863.014910
50.062610,1263.410333,746.560651,-9188.438784
50.065158,306.281293,19.142581,-9265.009107
50.067705,2526.820666,-918.843878,-8882.157491
50.070252,1091.127106,-1320.838075,-8977.870395
50.072799,-918.843878,363.709035,-9265.009107
50.075346,4173.082614,459.421939,-8307.880067
50.077893,1244.267752,382.851616,-8863.014910
50.080441,229.710970,2871.387120,-9169.296203
50.082988,2163.111630,-727.418070,-8977.870395
50.085535,2411.965181,-2584.248408,-8652.446522
50.088082,-555.134843,957.129040,-9820.143950
50.090629,823.130974,1741.974853,-8997.012976
50.093176,1033.699363,-325.423874,-8939.585234
50.095723,2871.387120,-497.707101,-8786.444587
50.098271,-95.712904,-401.994197,-9437.292334
50.100818,114.855485,-612.562586,-9169.296203
50.103365,4479.363907,38.285162,-8575.876198
50.105912,-842.273555,574.277424,-9379.864592
50.108459,1148.554848,-1071.984525,-9341.579430
50.111006,4307.080680,1359.123237,-8556.733618
50.113554,-746.560651,153.140646,-9284.151688
50.116101,-823.130974,133.998066,-9552.147819
50.118648,2469.392923,-382.851616,-8901.300072
50.121195,1129.412267,2603.390989,-9131.011042
50.123742,803.988394,823.130974,-9379.864592
50.126289,1473.978722,555.134843,-8690.731683
50.128837,325.423874,937.986459,-9303.294269
50.131384,2220.539373,1186.840010,-8805.587168
50.133931,-1244.267752,2029.113565,-9475.577496
50.136478,2565.105827,1952.543242,-8729.016845
50.139025,363.709035,-3311.666478,-9667.003304
50.141572,1052.841944,1780.260014,-9035.298138
50.144119,2297.109696,3637.090352,-8154.739421
50.146667,172.283227,-918.843878,-9896.714274
50.149214,-612.562586,-3713.660675,-9418.149754
50.151761,2354.537438,3656.232933,-9073.583299
50.154308,1167.697429,612.562586,-8997.012976
50.156855,440.279358,727.418070,-9609.575562
50.159402,1627.119368,1856.830338,-8518.448456
50.161950,38.285162,1129.412267,-9265.009107
50.164501,287.138712,-229.710970,-8958.727814
50.167053,478.564520,842.273555,-9226.723946
50.169604,2622.533570,-1301.695494,-9073.583299
50.172155,1301.695494,957.129040,-9322.436850
50.174707,995.414202,363.709035,-9073.583299
50.177258,842.273555,-1607.976787,-9131.011042
50.179810,2316.252277,612.562586,-9054.440718
50.182361,803.988394,-1014.556782,-9131.011042
50.184913,2201.396792,-842.273555,-8748.159426
50.187464,-95.712904,-1837.687757,-9705.288466
50.190016,287.138712,-2603.390989,-9265.009107
50.192567,2545.963246,3541.377448,-8633.303941
50.195119,784.845813,-1933.400661,-9150.153622
50.197670,803.988394,-57.427742,-9322.436850
50.200222,95.712904,-6623.332957,-9762.716208
50.202773,880.558717,3503.092286,-8786.444587
50.205325,2794.816797,3560.520029,-8537.591037
50.207876,535.992262,-2488.535504,-9437.292334
50.210428,-689.132909,-1129.412267,-9341.579430
50.212979,4096.512291,306.281293,-8518.448456
50.215531,1244.267752,1301.695494,-9169.296203
50.218082,-650.847747,-133.998066,-9590.432981
50.220634,2928.814862,-1091.127106,-8824.729749
50.223185,2297.109696,-95.712904,-8729.016845
50.225736,-1263.410333,1397.408398,-9092.725880
50.228288,1684.547110,937.986459,-8863.014910
50.230839,0.000000,976.271621,-8997.012976
50.233391,1052.841944,401.994197,-9207.581365
50.235942,2679.961312,2469.392923,-8997.012976
50.238494,669.990328,784.845813,-9073.583299
50.241045,-478.564520,1339.980656,-9379.864592
50.243597,1818.545176,-229.710970,-9054.440718
50.246148,172.283227,612.562586,-9437.292334
50.248700,1990.828403,-1033.699363,-8824.729749
50.251251,1761.117434,3732.803256,-9188.438784
50.253803,1091.127106,1856.830338,-8863.014910
50.256354,325.423874,631.705166,-9341.579430
50.258906,2813.959378,1856.830338,-8537.591037
50.261457,-1052.841944,1033.699363,-9877.571693
50.264009,899.701298,650.847747,-9150.153622
50.266564,1435.693560,669.990328,-8920.442653
50.269119,1761.117434,2029.113565,-8997.012976
50.271675,440.279358,2220.539373,-9016.155557
50.274230,957.129040,1493.121302,-8882.157491
50.276786,114.855485,1493.121302,-8882.157491
50.279341,995.414202,-1205.982590,-9284.151688
50.281897,2431.107762,1339.980656,-8958.727814
50.284452,1512.263883,1110.269686,-9226.723946
50.287008,631.705166,-478.564520,-9207.581365
50.289563,1550.549045,-478.564520,-8920.442653
50.292118,842.273555,765.703232,-9073.583299
50.294674,2143.969050,-38.285162,-8958.727814
50.297229,1493.121302,-382.851616,-8805.587168
50.299785,-1148.554848,133.998066,-9341.579430
50.302340,3177.668413,2947.957443,-9322.436850
50.304896,2297.109696,-3062.812928,-9092.725880
50.307451,1397.408398,-2411.965181,-9188.438784
50.310007,1607.976787,1244.267752,-9322.436850
50.312562,1301.695494,6757.331022,-8767.302006
50.315117,918.843878,-2852.244539,-9188.438784
50.317673,287.138712,-3924.229064,-9552.147819
50.320228,1569.691626,1071.984525,-8939.585234
50.322784,1033.699363,-306.281293,-9303.294269
50.325339,1014.556782,-1205.982590,-9131.011042
50.327895,2641.676150,-803.988394,-9150.153622
50.330450,918.843878,803.988394,-8977.870395
50.333006,1473.978722,937.986459,-9360.722011
50.335561,2201.396792,-689.132909,-8997.012976
50.338116,535.992262,1627.119368,-8958.727814
50.340672,-344.566454,1531.406464,-9054.440718
50.343227,1473.978722,-497.707101,-8977.870395
50.345783,669.990328,2201.396792,-9494.720077
50.348338,2545.963246,1033.699363,-8786.444587
50.350894,937.986459,1033.699363,-8958.727814
50.353449,-555.134843,1263.410333,-9265.009107
50.356004,1531.406464,1071.984525,-9284.151688
50.358560,995.414202,3120.240670,-8729.016845
50.361115,1780.260014,5091.926493,-8729.016845
50.363671,1627.119368,-2584.248408,-9533.005238
50.366226,-1263.410333,-4096.512291,-9743.573627
50.368763,3675.375514,8288.737486,-7886.743290
50.371299,612.562586,3943.371645,-9360.722011
50.373835,-1129.412267,-3273.381317,-9667.003304
50.376372,3426.521963,2124.826469,-8059.026517
50.378908,95.712904,3177.668413,-9418.149754
50.381444,746.560651,-1167.697429,-9360.722011
50.383981,861.416136,1416.550979,-8767.302006
50.386517,880.558717,325.423874,-8939.585234
50.389054,95.712904,823.130974,-8997.012976
50.391590,2718.246474,516.849682,-9284.151688
50.394126,1205.982590,-1186.840010,-9169.296203
50.396663,765.703232,-38.285162,-9399.007173
50.399199,1416.550979,229.710970,-8824.729749
50.401735,363.709035,-1282.552914,-9207.581365
50.404272,2201.396792,-669.990328,-9188.438784
50.406808,976.271621,95.712904,-8997.012976
50.409344,899.701298,842.273555,-8614.161360
50.411881,3043.670347,-1033.699363,-8901.300072
50.414417,-746.560651,-1512.263883,-9552.147819
50.416954,1607.976787,-2507.678085,-9265.009107
50.419490,2545.963246,1952.543242,-8824.729749
50.422026,631.705166,0.000000,-9303.294269
50.424563,1359.123237,2201.396792,-8633.303941
50.427099,1071.984525,-918.843878,-9475.577496
50.429635,2545.963246,-4249.652938,-8403.592971
50.432172,-1531.406464,1435.693560,-9743.573627
50.434708,1722.832272,-191.425808,-9092.725880
50.437244,3254.238736,306.281293,-8690.731683
50.439781,-497.707101,-248.853550,-9533.005238
50.442317,899.701298,172.283227,-9418.149754
50.444854,3713.660675,574.277424,-8633.303941
50.447390,-287.138712,899.701298,-9092.725880
50.449926,459.421939,325.423874,-8997.012976
50.452463,133.998066,880.558717,-9054.440718
50.454999,1741.974853,1301.695494,-8824.729749
50.457535,1799.402595,3158.525832,-9092.725880
50.460072,612.562586,-153.140646,-9265.009107
50.462608,689.132909,1244.267752,-8977.870395
50.465145,1148.554848,-325.423874,-9418.149754
50.467681,1052.841944,-842.273555,-8939.585234
50.470219,765.703232,-2909.672282,-9226.723946
50.472762,1225.125171,3081.955509,-9475.577496
50.475304,1531.406464,2335.394858,-8882.157491
50.477847,478.564520,-1493.121302,-9265.009107
50.480389,1799.402595,4268.795518,-8422.735552
50.482932,1359.123237,5761.916821,-9092.725880
50.485474,1435.693560,-803.988394,-8767.302006
50.488017,593.420005,2354.537438,-9188.438784
50.490560,1148.554848,1378.265818,-8977.870395
50.493102,-172.283227,133.998066,-9207.581365
50.495645,1320.838075,76.570323,-8709.874264
50.498187,114.855485,861.416136,-9111.868461
50.500730,1933.400661,-765.703232,-9322.436850
50.503272,1397.408398,325.423874,-9150.153622
50.505815,1971.685822,-57.427742,-9073.583299
50.508357,880.558717,-57.427742,-9303.294269
50.510900,-363.709035,-363.709035,-9379.864592
50.513443,2813.959378,-1282.552914,-9265.009107
50.515985,1397.408398,-248.853550,-8843.872330
50.518528,516.849682,133.998066,-9035.298138
50.521070,2182.254211,2182.254211,-8863.014910
50.523613,172.283227,-2009.970984,-9399.007173
50.526155,1627.119368,3732.803256,-8556.733618
50.528698,2603.390989,2220.539373,-8939.585234
50.531241,-210.568389,-95.712904,-9552.147819
50.533783,631.705166,-6049.055533,-9207.581365
50.536326,1875.972918,1263.410333,-8384.450390
50.538868,1627.119368,1454.836141,-9456.434915
50.541411,2086.541307,306.281293,-9073.583299
50.543953,-727.418070,-842.273555,-9552.147819
50.546496,3043.670347,-784.845813,-8556.733618
50.549038,765.703232,-459.421939,-9322.436850
50.551581,1837.687757,2201.396792,-9303.294269
50.554124,1914.258080,-631.705166,-9150.153622
50.556666,937.986459,1435.693560,-8671.589102
50.559209,-478.564520,1741.974853,-9341.579430
50.561751,708.275490,-708.275490,-8958.727814
50.564294,2086.541307,3005.385186,-8863.014910
50.566836,1818.545176,1531.406464,-9150.153622
50.569379,210.568389,784.845813,-9226.723946
50.571927,344.566454,1263.410333,-9284.151688
50.574475,2201.396792,401.994197,-8958.727814
50.577023,-880.558717,1320.838075,-9322.436850
50.579571,1933.400661,1665.404530,-8824.729749
50.582119,3196.810994,6661.618118,-8422.735552
50.584667,-1550.549045,-5953.342629,-10126.425243
50.587215,1339.980656,-363.709035,-8422.735552
50.589763,2890.529701,8595.018779,-8729.016845
50.592311,574.277424,-2737.389054,-9150.153622
50.594859,-1416.550979,-3215.953574,-9628.718142
50.597407,2545.963246,1684.547110,-8499.305875
50.599955,1799.402595,2067.398726,-9035.298138
50.602503,-555.134843,1933.400661,-9111.868461
50.605051,306.281293,267.996131,-8958.727814
50.607599,784.845813,-287.138712,-9284.151688
50.610147,2986.242605,-1091.127106,-9035.298138
50.612695,1205.982590,1416.550979,-9016.155557
50.615243,38.285162,114.855485,-9533.005238
50.617791,2679.961312,-689.132909,-8614.161360
50.620339,1684.547110,1359.123237,-8977.870395
50.622887,1435.693560,-1569.691626,-9111.868461
50.625435,1378.265818,-555.134843,-9150.153622
50.627983,95.712904,306.281293,-8958.727814
50.630531,1741.974853,-1493.121302,-9207.581365
50.633079,1359.123237,-2392.822600,-9054.440718
50.635627,689.132909,1186.840010,-9284.151688
50.638175,1722.832272,2086.541307,-9092.725880
50.640723,1493.121302,382.851616,-8709.874264
50.643271,57.427742,-1875.972918,-9513.862658
50.645819,2182.254211,1205.982590,-8690.731683
50.648367,478.564520,1722.832272,-9437.292334
50.650915,1263.410333,-2871.387120,-9054.440718
50.653463,2622.533570,-191.425808,-8920.442653
50.656011,-76.570323,440.279358,-9341.579430
50.658559,1990.828403,344.566454,-9245.866526
50.661107,3062.812928,363.709035,-9016.155557
50.663655,-612.562586,516.849682,-9150.153622
50.666203,1282.552914,1071.984525,-8690.731683
50.668751,248.853550,1588.834206,-8939.585234
50.671299,689.132909,1684.547110,-9265.009107
50.673851,1205.982590,1512.263883,-9131.011042
50.676403,1722.832272,1837.687757,-8920.442653
50.678956,631.705166,344.566454,-9226.723946
50.681508,95.712904,2890.529701,-9284.151688
50.684060,1818.545176,880.558717,-8595.018779
50.686612,689.132909,267.996131,-9303.294269
50.689164,325.423874,-229.710970,-9303.294269
50.691717,2220.539373,172.283227,-8901.300072
50.694269,191.425808,-344.566454,-9456.434915
50.696821,784.845813,-631.705166,-9456.434915
50.699373,2029.113565,-363.709035,-8824.729749
50.701925,631.705166,1435.693560,-9284.151688
50.704478,287.138712,-306.281293,-9552.147819
50.707030,2718.246474,2297.109696,-8288.737486
50.709582,-593.420005,1378.265818,-9322.436850
50.712134,19.142581,401.994197,-8767.302006
50.714686,1091.127106,995.414202,-9265.009107
50.717238,2584.248408,-995.414202,-8939.585234
50.719791,937.986459,-229.710970,-9437.292334
50.722343,1397.408398,1225.125171,-8882.157491
50.724895,1914.258080,631.705166,-9131.011042
50.727447,1761.117434,1014.556782,-8977.870395
50.729999,-153.140646,-784.845813,-9341.579430
50.732552,2890.529701,-727.418070,-8461.020714
50.735104,-689.132909,-2297.109696,-9743.573627
50.737656,2641.676150,1990.828403,-8652.446522
50.740208,2392.822600,2641.676150,-8499.305875
50.742760,38.285162,-497.707101,-9437.292334
50.745313,1033.699363,-5704.489078,-9513.862658
50.747865,976.271621,-1607.976787,-9131.011042
50.750417,708.275490,1282.552914,-9092.725880
50.752969,1416.550979,1531.406464,-9150.153622
50.755521,2737.389054,-306.281293,-8767.302006
50.758073,-497.707101,-1263.410333,-9571.290400
50.760626,1301.695494,-344.566454,-8997.012976
50.763178,2411.965181,803.988394,-8882.157491
50.765730,1378.265818,1359.123237,-9513.862658
50.768282,1091.127106,-1320.838075,-9169.296203
50.770834,1454.836141,1780.260014,-8729.016845
50.773387,172.283227,363.709035,-9207.581365
50.775943,-401.994197,612.562586,-9226.723946
50.778498,1033.699363,880.558717,-9226.723946
50.781054,2411.965181,1320.838075,-8748.159426
50.783610,612.562586,650.847747,-9169.296203
50.786166,76.570323,2737.389054,-9073.583299
50.788722,2565.105827,1435.693560,-8575.876198
50.791278,631.705166,172.283227,-9111.868461
50.793834,-191.425808,-5570.491013,-9762.716208
50.796390,1588.834206,3483.949706,-8997.012976
50.798946,1493.121302,-976.271621,-9188.438784
50.801502,267.996131,1397.408398,-9111.868461
50.804058,2297.109696,5589.633594,-8920.442653
50.806614,248.853550,4192.225195,-9379.864592
50.809170,803.988394,-727.418070,-9207.581365
50.811726,1550.549045,1856.830338,-9111.868461
50.814282,535.992262,957.129040,-9073.583299
50.816838,-38.285162,306.281293,-9016.155557
50.819394,708.275490,784.845813,-8920.442653
50.821950,2124.826469,459.421939,-9284.151688
50.824505,708.275490,-1703.689691,-9399.007173
50.827061,1818.545176,325.423874,-9035.298138
50.829617,1205.982590,-555.134843,-9150.153622
50.832173,784.845813,-1129.412267,-9437.292334
50.834729,2105.683888,-1225.125171,-9303.294269
50.837285,574.277424,248.853550,-9016.155557
50.839841,1473.978722,1071.984525,-9035.298138
50.842397,2335.394858,-497.707101,-8633.303941
50.844953,-172.283227,-574.277424,-9265.009107
50.847509,2928.814862,2967.100024,-8690.731683
50.850065,1359.123237,689.132909,-9188.438784
50.852621,-153.140646,-4307.080680,-9303.294269
50.855177,1339.980656,306.281293,-9092.725880
50.857733,593.420005,267.996131,-8652.446522
50.860289,918.843878,1665.404530,-9054.440718
50.862845,-708.275490,-2603.390989,-9743.573627
50.865401,3235.096155,344.566454,-8518.448456
50.867957,1014.556782,1512.263883,-9226.723946
50.870512,765.703232,-1033.699363,-9647.860723
50.873068,3809.373579,612.562586,-8652.446522
50.875624,-210.568389,382.851616,-9016.155557
50.878184,-306.281293,363.709035,-9092.725880
50.880743,1129.412267,1550.549045,-8709.874264
50.883302,1282.552914,2220.539373,-9150.153622
50.885861,2431.107762,2277.967115,-8958.727814
50.888421,114.855485,344.566454,-9207.581365
50.890980,803.988394,1703.689691,-8863.014910
50.893539,1550.549045,-2277.967115,-9054.440718
50.896099,2086.541307,4039.084549,-8748.159426
50.898658,-631.705166,2756.531635,-9150.153622
50.901217,1473.978722,-1263.410333,-9035.298138
50.903776,2105.683888,1263.410333,-8901.300072
50.906336,478.564520,1703.689691,-9303.294269
50.908895,1378.265818,1588.834206,-8882.157491
50.911454,631.705166,1703.689691,-9131.011042
50.914013,2239.681954,19.142581,-8882.157491
50.916573,708.275490,1301.695494,-9245.866526
50.919132,153.140646,593.420005,-9016.155557
50.921691,957.129040,210.568389,-8767.302006
50.924250,650.847747,1569.691626,-9035.298138
50.926810,1588.834206,497.707101,-9092.725880
50.929369,1033.699363,-1856.830338,-9513.862658
50.931928,1990.828403,1110.269686,-9073.583299
50.934488,-153.140646,-689.132909,-9265.009107
50.937047,1952.543242,-1091.127106,-9016.155557
50.939606,2967.100024,-1378.265818,-8882.157491
50.942165,-382.851616,-95.712904,-9073.583299
50.944725,2354.537438,1263.410333,-8614.161360
50.947284,1052.841944,-133.998066,-9322.436850
50.949843,267.996131,3809.373579,-8997.012976
50.952402,2124.826469,-325.423874,-8920.442653
50.954962,1339.980656,-1722.832272,-9131.011042
50.957521,803.988394,3675.375514,-8958.727814
50.960083,1607.976787,650.847747,-8843.872330
50.962646,497.707101,-2890.529701,-9207.581365
50.965208,3024.527766,-421.136778,-8480.163294
50.967770,-363.709035,-1014.556782,-9590.432981
50.970333,1588.834206,-325.423874,-8958.727814
50.972895,2373.680019,1550.549045,-8997.012976
50.975458,363.709035,287.138712,-9533.005238
50.978020,2833.101958,-153.140646,-8901.300072
50.980582,1148.554848,2450.250342,-8805.587168
50.983145,-708.275490,440.279358,-9245.866526
50.985707,727.418070,363.709035,-8997.012976
50.988269,1933.400661,2143.969050,-8920.442653
50.990832,1320.838075,631.705166,-9092.725880
50.993394,287.138712,1493.121302,-9379.864592
50.995957,1339.980656,861.416136,-9150.153622
50.998519,210.568389,-287.138712,-9418.149754
51.001081,1933.400661,3426.521963,-8901.300072
51.003644,880.558717,76.570323,-8882.157491
51.006206,-612.562586,-1014.556782,-9724.431046
51.008769,1933.400661,-6661.618118,-9322.436850
51.011331,1722.832272,5283.352301,-8614.161360
51.013893,1148.554848,3809.373579,-9169.296203
51.016456,1569.691626,-765.703232,-8977.870395
51.019018,1052.841944,382.851616,-9169.296203
51.021580,287.138712,3024.527766,-9265.009107
51.024143,842.273555,1378.265818,-8614.161360
51.026705,76.570323,995.414202,-9207.581365
51.029268,727.418070,-267.996131,-9054.440718
51.031830,1971.685822,-535.992262,-9265.009107
51.034392,2220.539373,861.416136,-8901.300072
51.036955,229.710970,153.140646,-9513.862658
51.039517,2354.537438,114.855485,-8748.159426
51.042079,459.421939,1033.699363,-9341.579430
51.044642,2622.533570,-1761.117434,-8920.442653
51.047204,-306.281293,-574.277424,-9513.862658
51.049767,957.129040,-765.703232,-8939.585234
51.052329,3120.240670,995.414202,-9016.155557
51.054891,-95.712904,2909.672282,-8920.442653
51.057454,440.279358,-7101.897477,-9877.571693
51.060016,3273.381317,2143.969050,-8231.309744
51.062581,95.712904,3426.521963,-9475.577496
51.065145,1014.556782,-4077.369710,-9188.438784
51.067710,-76.570323,-1225.125171,-9437.292334
51.070274,1933.400661,631.705166,-8633.303941
51.072839,3005.385186,114.855485,-8671.589102
51.075403,248.853550,172.283227,-9533.005238
51.077968,2182.254211,-191.425808,-9188.438784
51.080532,2143.969050,555.134843,-9169.296203
51.083097,267.996131,-574.277424,-9073.583299
51.085661,1110.269686,1397.408398,-8977.870395
51.088226,-306.281293,1761.117434,-8977.870395
51.090790,1780.260014,1588.834206,-8824.729749
51.093354,880.558717,957.129040,-9111.868461
51.095919,593.420005,325.423874,-9265.009107
51.098483,1895.115499,842.273555,-8882.157491
51.101048,1052.841944,995.414202,-9226.723946
51.103612,172.283227,-38.285162,-9265.009107
51.106177,1033.699363,3349.951640,-8824.729749
51.108741,2373.680019,1607.976787,-8461.020714
51.111306,57.427742,1722.832272,-9571.290400
51.113870,784.845813,-650.847747,-9169.296203
51.116435,1837.687757,2354.537438,-8384.450390
51.118999,1493.121302,3158.525832,-8901.300072
51.121564,995.414202,-899.701298,-9341.579430
51.124128,765.703232,1550.549045,-8939.585234
51.126693,1244.267752,1071.984525,-8709.874264
51.129257,708.275490,-306.281293,-8958.727814
51.131822,-401.994197,1588.834206,-9035.298138
51.134386,3905.086483,-344.566454,-9016.155557
51.136951,823.130974,-363.709035,-9303.294269
51.139515,153.140646,1339.980656,-9379.864592
51.142080,2699.103893,-1359.123237,-8843.872330
51.144644,593.420005,172.283227,-9379.864592
51.147209,1435.693560,-1914.258080,-9207.581365
51.149773,1071.984525,153.140646,-8652.446522
51.152338,1780.260014,2067.398726,-8652.446522
51.154902,1971.685822,-3101.098090,-9322.436850
51.157467,76.570323,-2967.100024,-9494.720077
51.160031,1933.400661,1741.974853,-9092.725880
51.162596,2086.541307,-3694.518094,-9245.866526
51.165162,-153.140646,1320.838075,-9245.866526
51.167729,2392.822600,2660.818731,-8518.448456
51.170295,1646.261949,-1684.547110,-8939.585234
51.172862,-382.851616,38.285162,-9150.153622
51.175428,2679.961312,784.845813,-8614.161360
51.177995,765.703232,267.996131,-9322.436850
51.180561,1339.980656,191.425808,-9399.007173
51.183128,2871.387120,-765.703232,-9169.296203
51.185694,153.140646,1416.550979,-8977.870395
51.188261,153.140646,1378.265818,-9150.153622
51.190827,708.275490,727.418070,-8537.591037
51.193394,1359.123237,899.701298,-9456.434915
51.195960,1665.404530,2258.824534,-8958.727814
51.198527,191.425808,516.849682,-9188.438784
51.201093,1856.830338,669.990328,-8786.444587
51.203660,535.992262,995.414202,-9379.864592
51.206226,861.416136,3943.371645,-8690.731683
51.208793,1933.400661,4728.217458,-8690.731683
51.211359,478.564520,-1397.408398,-9035.298138
51.213926,-708.275490,-2545.963246,-9399.007173
51.216492,3732.803256,7599.604578,-8288.737486
51.219059,535.992262,3081.955509,-9054.440718
51.221625,95.712904,-2220.539373,-9054.440718
51.224192,2794.816797,2220.539373,-8729.016845
51.226758,995.414202,1473.978722,-9111.868461
51.229325,-153.140646,1856.830338,-9207.581365
51.231891,899.701298,363.709035,-8805.587168
51.234458,-746.560651,95.712904,-9360.722011
51.237024,3464.807125,-1033.699363,-8920.442653
51.239591,1990.828403,478.564520,-8843.872330
51.242157,-708.275490,2258.824534,-9686.145885
51.244724,3407.379382,-899.701298,-8633.303941
51.247290,1493.121302,-287.138712,-9131.011042
51.249857,-95.712904,-95.712904,-9360.722011
51.252423,1550.549045,-153.140646,-8920.442653
51.254990,1895.115499,2679.961312,-8422.735552
51.257556,555.134843,-2852.244539,-9475.577496
51.260123,650.847747,-4766.502619,-9360.722011
51.262689,1531.406464,-861.416136,-9169.296203
51.265256,2622.533570,2622.533570,-8939.585234
51.267824,1703.689691,1895.115499,-8499.305875
51.270391,-555.134843,-2775.674216,-9647.860723
51.272959,2852.244539,-746.560651,-8939.585234
51.275527,995.414202,574.277424,-9092.725880
51.278095,669.990328,-440.279358,-9245.866526
51.280662,1263.410333,535.992262,-9207.581365
51.283230,2852.244539,-823.130974,-8977.870395
51.285798,1607.976787,727.418070,-9245.866526
51.288366,765.703232,1416.550979,-8671.589102
51.290933,-95.712904,1531.406464,-9131.011042
51.293501,1435.693560,-57.427742,-8901.300072
51.296069,210.568389,1569.691626,-9188.438784
51.298637,2086.541307,1607.976787,-8843.872330
51.301205,995.414202,1225.125171,-9284.151688
51.303772,516.849682,3579.662610,-8709.874264
51.306340,1339.980656,2545.963246,-8997.012976
51.308908,2699.103893,4287.938099,-8441.878133
51.311476,76.570323,478.564520,-9360.722011
51.314043,-1646.261949,-4307.080680,-10145.567824
51.316611,2411.965181,-325.423874,-8365.307810
51.319179,1933.400661,7121.040058,-9092.725880
51.321747,38.285162,593.420005,-9399.007173
51.324314,650.847747,-2335.394858,-9265.009107
51.326882,2775.674216,4709.074877,-8422.735552
51.329450,-191.425808,1205.982590,-9399.007173
51.332018,38.285162,76.570323,-8614.161360
51.334586,803.988394,-95.712904,-9016.155557
51.337153,2297.109696,937.986459,-8863.014910
51.339721,-229.710970,76.570323,-9590.432981
51.342289,1627.119368,76.570323,-9131.011042
51.344857,2373.680019,-172.283227,-8977.870395
51.347424,-784.845813,-746.560651,-9724.431046
51.349992,2143.969050,-2067.398726,-9054.440718
51.352560,1607.976787,708.275490,-8614.161360
51.355128,1359.123237,-248.853550,-9092.725880
51.357695,440.279358,574.277424,-8901.300072
51.360263,1818.545176,-1856.830338,-9418.149754
51.362831,1301.695494,650.847747,-9188.438784
51.365399,1301.695494,-2009.970984,-9226.723946
51.367966,1129.412267,3694.518094,-9169.296203
51.370535,2067.398726,-1646.261949,-8920.442653
51.373105,823.130974,-937.986459,-9341.579430
51.375674,191.425808,-1148.554848,-9169.296203
51.378243,631.705166,-880.558717,-9188.438784
51.380812,2565.105827,1378.265818,-8805.587168
51.383381,2105.683888,746.560651,-9169.296203
51.385950,1339.980656,-248.853550,-9399.007173
51.388519,1129.412267,918.843878,-9035.298138
51.391088,918.843878,1033.699363,-8997.012976
51.393657,1129.412267,-1091.127106,-9035.298138
51.396226,19.142581,1722.832272,-9475.577496
51.398795,2488.535504,2258.824534,-8767.302006
51.401364,574.277424,861.416136,-9073.583299
51.403933,880.558717,995.414202,-9131.011042
51.406502,555.134843,-1454.836141,-9475.577496
51.409071,1167.697429,842.273555,-8997.012976
51.411640,-172.283227,-1263.410333,-9628.718142
51.414209,2890.529701,957.129040,-8422.735552
51.416778,-478.564520,248.853550,-9992.427178
51.419347,1914.258080,363.709035,-8307.880067
51.421916,1378.265818,1148.554848,-9207.581365
51.424485,2392.822600,1014.556782,-8920.442653
51.427054,-191.425808,1263.410333,-9571.290400
51.429623,1301.695494,3196.810994,-8556.733618
51.432192,38.285162,-574.277424,-9016.155557
51.434761,344.566454,995.414202,-8671.589102
51.437330,1914.258080,574.277424,-9207.581365
51.439899,2354.537438,-727.418070,-9111.868461
51.442468,-191.425808,957.129040,-9322.436850
51.445037,3254.238736,497.707101,-8595.018779
51.447606,1416.550979,153.140646,-9207.581365
51.450175,842.273555,-1186.840010,-9226.723946
51.452744,1205.982590,267.996131,-8652.446522
51.455313,2335.394858,-2392.822600,-8729.016845
51.457882,-440.279358,-1359.123237,-9533.005238
51.460451,1263.410333,-3081.955509,-9475.577496
51.463020,3024.527766,1148.554848,-8671.589102
51.465589,1225.125171,2986.242605,-9207.581365
51.468158,229.710970,-5187.639397,-9724.431046
51.470727,880.558717,-2603.390989,-9016.155557
51.473301,976.271621,1167.697429,-9054.440718
51.475871,2124.826469,-344.566454,-8786.444587
51.478441,-229.710970,-1875.972918,-9475.577496
51.481011,2220.539373,-325.423874,-9245.866526
51.483582,1933.400661,497.707101,-9303.294269
51.486152,1493.121302,-516.849682,-9265.009107
51.488722,325.423874,2622.533570,-8863.014910
51.491293,363.709035,1435.693560,-8863.014910
51.493863,1320.838075,-459.421939,-8863.014910
51.496433,-191.425808,1301.695494,-9322.436850
51.499003,2507.678085,1895.115499,-8729.016845
51.501574,2411.965181,1703.689691,-8843.872330
51.504144,38.285162,2354.537438,-9245.866526
51.506714,1129.412267,746.560651,-8843.872330
51.509284,2871.387120,153.140646,-9016.155557
51.511855,-1225.125171,-1684.547110,-9743.573627
51.514425,1263.410333,1435.693560,-8977.870395
51.516995,2469.392923,6757.331022,-8499.305875
51.519565,-478.564520,2105.683888,-9533.005238
51.522136,593.420005,-861.416136,-9131.011042
51.524706,2756.531635,1014.556782,-8786.444587
51.527276,880.558717,3292.523898,-8958.727814
51.529847,-363.709035,708.275490,-9188.438784
51.532417,1110.269686,2163.111630,-8805.587168
51.534987,-114.855485,-746.560651,-9303.294269
51.537557,1933.400661,-1091.127106,-9284.151688
51.540128,2622.533570,382.851616,-8748.159426
51.542698,-669.990328,287.138712,-9724.431046
51.545268,3177.668413,-1397.408398,-8729.016845
51.547838,1607.976787,306.281293,-9245.866526
51.550409,574.277424,-248.853550,-9111.868461
51.552979,1205.982590,-2431.107762,-9226.723946
51.555549,2009.970984,1435.693560,-8307.880067
51.558120,1301.695494,2871.387120,-9207.581365
51.560690,325.423874,-5474.778109,-9705.288466
51.563260,1588.834206,1799.402595,-8767.302006
51.565830,2277.967115,-1186.840010,-9150.153622
51.568401,-114.855485,-3885.943902,-9131.011042
51.570971,1875.972918,708.275490,-8901.300072
51.573541,1933.400661,-1205.982590,-8920.442653
51.576112,172.283227,-574.277424,-9265.009107
51.578683,1837.687757,1052.841944,-8767.302006
51.581254,3637.090352,287.138712,-9073.583299
51.583824,995.414202,-191.425808,-9379.864592
51.586395,-210.568389,1741.974853,-9092.725880
51.588966,1933.400661,976.271621,-8595.018779
51.591537,-114.855485,363.709035,-8939.585234
51.594108,631.705166,2163.111630,-9073.583299
51.596678,2603.390989,1110.269686,-8824.729749
51.599249,95.712904,229.710970,-9245.866526
51.601820,1531.406464,1914.258080,-8767.302006
51.604391,631.705166,3464.807125,-9303.294269
51.606962,1512.263883,3158.525832,-8767.302006
51.609532,1703.689691,3196.810994,-8920.442653
51.612103,-1014.556782,-6987.041992,-10145.567824
51.614674,459.421939,-2545.963246,-8920.442653
51.617245,2105.683888,9686.145885,-8709.874264
51.619816,306.281293,2297.109696,-9667.003304
51.622386,1167.697429,-3675.375514,-9073.583299
51.624957,1320.838075,4689.932296,-8843.872330
51.627528,535.992262,1761.117434,-9418.149754
51.630099,1282.552914,765.703232,-8480.163294
51.632670,-248.853550,-306.281293,-9226.723946
51.635240,995.414202,-823.130974,-9284.151688
51.637811,1397.408398,1722.832272,-8958.727814
51.640382,1301.695494,1282.552914,-9092.725880
51.642953,2067.398726,-1205.982590,-9016.155557
51.645524,1167.697429,440.279358,-9284.151688
51.648094,1071.984525,-555.134843,-9150.153622
51.650665,976.271621,937.986459,-8997.012976
51.653236,2565.105827,-1225.125171,-8537.591037
51.655807,-267.996131,-823.130974,-9399.007173
51.658378,2699.103893,1684.547110,-8977.870395
51.660948,1359.123237,1569.691626,-9054.440718
51.663519,1837.687757,-19.142581,-8767.302006
51.666090,-191.425808,-2909.672282,-9934.999435
51.668661,1473.978722,-287.138712,-8977.870395
51.671232,1244.267752,57.427742,-8805.587168
51.673802,1014.556782,-38.285162,-8977.870395
51.676373,593.420005,-306.281293,-9456.434915
51.678944,1971.685822,1397.408398,-9150.153622
51.681516,2220.539373,555.134843,-9322.436850
51.684087,1512.263883,191.425808,-8882.157491
51.686658,-593.420005,880.558717,-9303.294269
51.689230,229.710970,1454.836141,-8977.870395
51.691801,1473.978722,1895.115499,-8977.870395
51.694372,1339.980656,2297.109696,-8709.874264
51.696944,478.564520,1531.406464,-9456.434915
51.699515,1895.115499,1014.556782,-8537.591037
51.702086,287.138712,1512.263883,-9533.005238
51.704658,1493.121302,1550.549045,-8997.012976
51.707229,593.420005,-803.988394,-9379.864592
51.709800,1263.410333,363.709035,-8824.729749
51.712371,631.705166,1550.549045,-9226.723946
51.714943,1435.693560,1684.547110,-8595.018779
51.717514,631.705166,1569.691626,-9590.432981
51.720085,1818.545176,76.570323,-9016.155557
51.722657,1435.693560,555.134843,-9418.149754
51.725228,-76.570323,995.414202,-8824.729749
51.727799,421.136778,1225.125171,-8901.300072
51.730371,1263.410333,1167.697429,-8882.157491
51.732942,631.705166,-1990.828403,-9628.718142
51.735513,2909.672282,-248.853550,-8652.446522
51.738085,114.855485,2545.963246,-9475.577496
51.740656,2201.396792,-612.562586,-8843.872330
51.743227,669.990328,-535.992262,-9552.147819
51.745799,2737.389054,248.853550,-8537.591037
51.748370,-57.427742,-2163.111630,-9437.292334
51.750941,669.990328,-1780.260014,-9303.294269
51.753512,1244.267752,-401.994197,-9226.723946
51.756084,2641.676150,1856.830338,-8690.731683
51.758655,38.285162,-2009.970984,-9705.288466
51.761226,1052.841944,-2258.824534,-9092.725880
51.763798,2718.246474,3101.098090,-8346.165229
51.766369,669.990328,842.273555,-9150.153622
51.768940,1550.549045,-2545.963246,-8824.729749
51.771512,-535.992262,-1339.980656,-9494.720077
51.774083,1837.687757,-325.423874,-9131.011042
51.776654,1914.258080,1014.556782,-9322.436850
51.779226,2086.541307,-535.992262,-9188.438784
51.781797,191.425808,1627.119368,-8939.585234
51.784369,-38.285162,535.992262,-8977.870395
51.786941,1684.547110,497.707101,-8843.872330
51.789513,1110.269686,248.853550,-9245.866526
51.792085,555.134843,1818.545176,-9131.011042
51.794657,1244.267752,937.986459,-9284.151688
51.797229,1933.400661,-899.701298,-8977.870395
51.799801,823.130974,3158.525832,-9054.440718
51.802373,612.562586,1493.121302,-8977.870395
51.804945,612.562586,-1703.689691,-9284.151688
51.807517,1091.127106,-6910.471669,-9188.438784
51.810089,133.998066,3177.668413,-9150.153622
51.812661,2699.103893,2718.246474,-8920.442653
51.815233,1454.836141,842.273555,-9303.294269
51.817805,937.986459,899.701298,-9054.440718
51.820377,784.845813,1186.840010,-9379.864592
51.822949,133.998066,1397.408398,-8709.874264
51.825521,229.710970,-191.425808,-9054.440718
51.828093,3292.523898,440.279358,-8767.302006
51.830665,-708.275490,-976.271621,-9628.718142
51.833237,1684.547110,1646.261949,-8786.444587
51.835809,2258.824534,153.140646,-9054.440718
51.838380,516.849682,-1799.402595,-9341.579430
51.840952,1512.263883,-1339.980656,-9265.009107
51.843524,2335.394858,1071.984525,-8269.594906
51.846096,1091.127106,1397.408398,-8824.729749
51.848668,248.853550,-2622.533570,-9150.153622
51.851240,784.845813,-4479.363907,-9341.579430
51.853812,3732.803256,2373.680019,-8537.591037
51.856384,-478.564520,-574.277424,-9973.284597
51.858956,2105.683888,-1512.263883,-8499.305875
51.861528,1263.410333,2488.535504,-9456.434915
51.864100,1225.125171,-1895.115499,-8997.012976
51.866672,-287.138712,-1952.543242,-9399.007173
51.869244,2048.256146,3388.236802,-8518.448456
51.871816,1627.119368,114.855485,-9628.718142
51.874388,2258.824534,-1052.841944,-9131.011042
51.876960,689.132909,1473.978722,-9092.725880
51.879532,1244.267752,1091.127106,-8786.444587
51.882104,0.000000,229.710970,-9111.868461
51.884676,1493.121302,1990.828403,-8920.442653
51.887248,1569.691626,1225.125171,-8920.442653
51.889819,-287.138712,1665.404530,-9265.009107
51.892391,2201.396792,-1091.127106,-9169.296203
51.894963,880.558717,1186.840010,-9131.011042
51.897535,669.990328,2622.533570,-8977.870395
51.900107,2067.398726,8652.446522,-8499.305875
51.902679,440.279358,-6814.758765,-8748.159426
51.905251,-1052.841944,-7733.602643,-10107.282662
51.907823,823.130974,-957.129040,-8882.157491
51.910395,2699.103893,7006.184573,-8958.727814
51.912967,1014.556782,-325.423874,-9322.436850
51.915539,363.709035,38.285162,-9035.298138
51.918111,1205.982590,-555.134843,-8767.302006
51.920682,-382.851616,2201.396792,-9150.153622
51.923254,2737.389054,153.140646,-8805.587168
51.925826,363.709035,-2737.389054,-9628.718142
51.928398,-823.130974,440.279358,-9265.009107
51.930970,2947.957443,689.132909,-8843.872330
51.933542,1244.267752,-1110.269686,-9437.292334
51.936114,803.988394,-1684.547110,-9303.294269
51.938686,2392.822600,650.847747,-8633.303941
51.941258,497.707101,2909.672282,-9188.438784
51.943830,746.560651,-1799.402595,-8997.012976
51.946402,1895.115499,2718.246474,-8767.302006
51.948974,612.562586,-765.703232,-9418.149754
51.951545,1531.406464,-1933.400661,-9054.440718
51.954117,459.421939,229.710970,-9494.720077
51.956689,1895.115499,-1263.410333,-8250.452325
51.959261,746.560651,1454.836141,-9169.296203
51.961833,-114.855485,-2794.816797,-9418.149754
51.964405,995.414202,1914.258080,-8748.159426
51.966977,3522.234867,765.703232,-8997.012976
51.969549,1569.691626,-765.703232,-9513.862658
51.972121,1225.125171,957.129040,-9035.298138
51.974693,401.994197,2469.392923,-8901.300072
51.977265,133.998066,516.849682,-8901.300072
51.979837,1875.972918,574.277424,-8997.012976
51.982408,1339.980656,3503.092286,-8575.876198
51.984980,478.564520,1875.972918,-9207.581365
51.987552,1301.695494,-2143.969050,-9111.868461
51.990125,957.129040,3043.670347,-9111.868461
51.992697,1129.412267,3464.807125,-8652.446522
51.995269,1550.549045,937.986459,-9016.155557
51.997841,1569.691626,2297.109696,-8729.016845
52.000413,172.283227,842.273555,-8997.012976
52.002985,19.142581,2986.242605,-9207.581365
52.005557,2622.533570,-57.427742,-8690.731683
52.008129,1473.978722,2756.531635,-8920.442653
52.010701,363.709035,2392.822600,-9303.294269
52.013274,267.996131,-191.425808,-8805.587168
52.015846,612.562586,995.414202,-8843.872330
52.018418,2297.109696,-76.570323,-9073.583299
52.020990,918.843878,-1071.984525,-9207.581365
52.023562,459.421939,421.136778,-9131.011042
52.026134,2890.529701,-689.132909,-8748.159426
52.028706,535.992262,-555.134843,-9437.292334
52.031278,1339.980656,-1091.127106,-9322.436850
52.033850,2048.256146,-95.712904,-8671.589102
52.036423,2182.254211,-19.142581,-8709.874264
52.038995,210.568389,459.421939,-9073.583299
52.041567,2048.256146,1014.556782,-8939.585234
52.044139,995.414202,-4192.225195,-9705.288466
52.046711,746.560651,-823.130974,-9226.723946
52.049283,3062.812928,3426.521963,-8365.307810
52.051855,382.851616,-727.418070,-9303.294269
52.054427,1033.699363,-1282.552914,-8901.300072
52.056999,1148.554848,-535.992262,-8939.585234
52.059572,708.275490,-861.416136,-9571.290400
52.062144,2067.398726,957.129040,-9150.153622
52.064716,1512.263883,363.709035,-9322.436850
52.067288,1416.550979,497.707101,-8843.872330
52.069860,-669.990328,1665.404530,-9188.438784
52.072432,1856.830338,440.279358,-8824.729749
52.075004,1110.269686,-421.136778,-9188.438784
52.077576,478.564520,1914.258080,-8901.300072
52.080148,1014.556782,650.847747,-9379.864592
52.082720,1244.267752,3349.951640,-9073.583299
52.085293,1588.834206,3005.385186,-8786.444587
52.087865,1301.695494,4670.789715,-8824.729749
52.090437,1148.554848,6010.770371,-8805.587168
52.093009,1397.408398,631.705166,-8843.872330
52.095582,267.996131,-1071.984525,-9226.723946
52.098154,2067.398726,1875.972918,-8652.446522
52.100726,650.847747,2143.969050,-9571.290400
52.103299,1435.693560,-1339.980656,-9150.153622
52.105871,823.130974,937.986459,-8786.444587
52.108443,57.427742,1933.400661,-9111.868461
52.111015,918.843878,899.701298,-8958.727814
52.113588,1856.830338,-1780.260014,-9131.011042
52.116160,1167.697429,842.273555,-9092.725880
52.118732,248.853550,-957.129040,-9322.436850
52.121305,1741.974853,-57.427742,-8977.870395
52.123877,2909.672282,-861.416136,-9073.583299
52.126449,401.994197,-631.705166,-9360.722011
52.129022,1148.554848,1990.828403,-8958.727814
52.131594,2182.254211,-2718.246474,-8786.444587
52.134166,-746.560651,1933.400661,-9533.005238
52.136739,2565.105827,287.138712,-8767.302006
52.139311,2105.683888,1033.699363,-8977.870395
52.141883,1818.545176,2239.681954,-8575.876198
52.144456,-593.420005,2679.961312,-9590.432981
52.147028,2737.389054,-1071.984525,-8403.592971
52.149600,-95.712904,-1627.119368,-9456.434915
52.152172,1091.127106,2277.967115,-8709.874264
52.154745,1435.693560,344.566454,-9647.860723
52.157317,3369.094221,-248.853550,-8748.159426
52.159889,-95.712904,76.570323,-9418.149754
52.162462,1225.125171,1282.552914,-8729.016845
52.165034,-38.285162,1627.119368,-9265.009107
52.167606,1493.121302,2029.113565,-8805.587168
52.170179,1244.267752,2143.969050,-8824.729749
52.172751,1569.691626,727.418070,-8786.444587
52.175323,382.851616,-1799.402595,-9399.007173
52.177895,1627.119368,3005.385186,-9054.440718
52.180467,593.420005,-4728.217458,-9341.579430
52.183039,1244.267752,6049.055533,-8824.729749
52.185611,2813.959378,6106.483275,-8499.305875
52.188184,-1091.127106,-2526.820666,-9724.431046
52.190756,38.285162,191.425808,-9360.722011
52.193328,3349.951640,3024.527766,-8212.167163
52.195900,2009.970984,3043.670347,-9131.011042
52.198472,38.285162,-114.855485,-9456.434915
52.201044,1052.841944,1569.691626,-8403.592971
52.203616,210.568389,-765.703232,-9360.722011
52.206188,1607.976787,19.142581,-9073.583299
52.208761,3024.527766,248.853550,-8729.016845
52.211333,-363.709035,-880.558717,-9475.577496
52.213905,2048.256146,-191.425808,-9054.440718
52.216477,995.414202,1225.125171,-9303.294269
52.219049,2277.967115,-344.566454,-9092.725880
52.221621,478.564520,-650.847747,-9016.155557
52.224193,1033.699363,-114.855485,-9150.153622
52.226766,1148.554848,401.994197,-8958.727814
52.229338,1110.269686,191.425808,-8997.012976
52.231910,689.132909,-4173.082614,-9456.434915
52.234482,1799.402595,-1339.980656,-9475.577496
52.237054,995.414202,861.416136,-8729.016845
52.239626,1627.119368,57.427742,-9035.298138
52.242198,153.140646,-1818.545176,-9111.868461
52.244770,1320.838075,1780.260014,-8748.159426
52.247343,1052.841944,861.416136,-9341.579430
52.249915,3254.238736,-210.568389,-8958.727814
52.252487,1933.400661,1320.838075,-8633.303941
52.255059,-248.853550,957.129040,-9379.864592
52.257631,210.568389,-325.423874,-9054.440718
52.260203,1416.550979,2220.539373,-8977.870395
52.262775,2009.970984,1914.258080,-8671.589102
52.265348,-631.705166,19.142581,-9705.288466
52.267920,1895.115499,3503.092286,-8882.157491
52.270492,421.136778,-669.990328,-9475.577496
52.273064,1205.982590,3024.527766,-8901.300072
52.275636,1818.545176,995.414202,-8843.872330
52.278208,669.990328,1148.554848,-9245.866526
52.280780,574.277424,516.849682,-9111.868461
52.283352,746.560651,2699.103893,-9092.725880
52.285924,1301.695494,-57.427742,-8958.727814
52.288495,995.414202,1512.263883,-9245.866526
52.291067,2105.683888,-76.570323,-8767.302006
52.293639,-267.996131,1722.832272,-9245.866526
52.296211,114.855485,1646.261949,-9131.011042
52.298783,2488.535504,-1588.834206,-8958.727814
52.301355,1818.545176,153.140646,-8709.874264
52.303927,-114.855485,-1531.406464,-9475.577496
52.306499,2718.246474,-2201.396792,-8901.300072
52.309071,1263.410333,1588.834206,-9284.151688
52.311643,2067.398726,-421.136778,-9035.298138
52.314215,76.570323,-3330.809059,-9303.294269
52.316787,1550.549045,4651.647134,-8786.444587
52.319358,918.843878,-2545.963246,-8977.870395
52.321930,1071.984525,-153.140646,-9073.583299
52.324502,2201.396792,1091.127106,-8824.729749
52.327074,1473.978722,-19.142581,-8997.012976
52.329646,593.420005,-4402.793584,-9188.438784
52.332218,2373.680019,-1320.838075,-8633.303941
52.334790,842.273555,842.273555,-9073.583299
52.337362,-669.990328,-1014.556782,-9437.292334
52.339934,3369.094221,918.843878,-8863.014910
52.342506,1837.687757,-95.712904,-9399.007173
52.345078,-229.710970,2086.541307,-9016.155557
52.347650,1531.406464,1741.974853,-8729.016845
52.350221,823.130974,-976.271621,-9322.436850
52.352793,114.855485,1071.984525,-9207.581365
52.355365,2737.389054,3196.810994,-8327.022648
52.357937,918.843878,1607.976787,-9609.575562
52.360509,535.992262,-1856.830338,-9475.577496
52.363081,650.847747,-784.845813,-9303.294269
52.365653,1359.123237,-57.427742,-9131.011042
52.368225,2201.396792,5685.346498,-8805.587168
52.370797,746.560651,1493.121302,-9150.153622
52.373369,-133.998066,-3292.523898,-9437.292334
52.375941,2545.963246,2277.967115,-8652.446522
52.378512,1148.554848,3943.371645,-9131.011042
52.381084,765.703232,-842.273555,-9456.434915
52.383656,-133.998066,-95.712904,-9016.155557
52.386228,1359.123237,248.853550,-8767.302006
52.388800,1493.121302,229.710970,-9092.725880
52.391372,976.271621,-95.712904,-9188.438784
52.393944,1856.830338,1684.547110,-8882.157491
52.396515,-114.855485,-937.986459,-9418.149754
52.399087,1110.269686,-899.701298,-9131.011042
52.401659,3196.810994,0.000000,-9073.583299
52.404231,631.705166,497.707101,-8920.442653
52.406803,823.130974,2182.254211,-8671.589102
52.409375,3196.810994,2890.529701,-8269.594906
52.411946,918.843878,3043.670347,-8748.159426
52.414518,1148.554848,3177.668413,-9188.438784
52.417090,1493.121302,-7714.460062,-9762.716208
52.419662,133.998066,-727.418070,-9016.155557
52.422234,1627.119368,172.283227,-8977.870395
52.424806,1091.127106,-306.281293,-9016.155557
52.427378,-172.283227,306.281293,-9035.298138
52.429949,2718.246474,-133.998066,-9150.153622
52.432521,1607.976787,-172.283227,-9245.866526
52.435093,1033.699363,842.273555,-9131.011042
52.437665,1263.410333,2143.969050,-8901.300072
52.440237,-287.138712,1301.695494,-9226.723946
52.442809,1033.699363,1091.127106,-9054.440718
52.445380,1454.836141,2679.961312,-8709.874264
52.447952,210.568389,-133.998066,-9150.153622
52.450524,1435.693560,-1722.832272,-9035.298138
52.453096,1588.834206,3043.670347,-9092.725880
52.455668,669.990328,-306.281293,-9437.292334
52.458240,153.140646,-267.996131,-9379.864592
52.460812,2029.113565,-191.425808,-8939.585234
52.463383,-76.570323,-401.994197,-9379.864592
52.465955,1205.982590,-1646.261949,-8633.303941
52.468527,478.564520,3330.809059,-9418.149754
52.471099,2526.820666,2239.681954,-8748.159426
52.473671,-459.421939,-2718.246474,-9437.292334
52.476243,-114.855485,1378.265818,-8805.587168
52.478814,2124.826469,880.558717,-9226.723946
52.481384,995.414202,-2354.537438,-8997.012976
52.483956,918.843878,1033.699363,-9054.440718
52.486527,1990.828403,-440.279358,-8997.012976
52.489098,899.701298,-1397.408398,-9437.292334
52.491669,2009.970984,-727.418070,-9207.581365
52.494241,2584.248408,-1416.550979,-8863.014910
52.496812,-497.707101,-401.994197,-9609.575562
52.499383,248.853550,-3292.523898,-9437.292334
52.501955,1110.269686,-4651.647134,-9150.153622
52.504526,1933.400661,8441.878133,-8365.307810
52.507097,1952.543242,-1301.695494,-9571.290400
52.509669,1225.125171,-8384.450390,-9188.438784
52.512240,344.566454,1703.689691,-9284.151688
52.514811,2335.394858,1531.406464,-8729.016845
52.517383,1129.412267,-784.845813,-9092.725880
52.519954,1512.263883,-19.142581,-9188.438784
52.522525,2277.967115,-2584.248408,-9131.011042
52.525096,421.136778,746.560651,-9245.866526
52.527668,1091.127106,3215.953574,-8786.444587
52.530239,306.281293,861.416136,-9111.868461
52.532810,1761.117434,2316.252277,-8786.444587
52.535382,535.992262,421.136778,-9054.440718
52.537953,267.996131,689.132909,-9188.438784
52.540524,1397.408398,2411.965181,-8843.872330
52.543096,765.703232,-172.283227,-9322.436850
52.545667,0.000000,-344.566454,-9475.577496
52.548238,3177.668413,287.138712,-8652.446522
52.550810,937.986459,4575.076811,-8939.585234
52.553381,325.423874,2124.826469,-9016.155557
52.555952,1110.269686,-1320.838075,-9054.440718
52.558523,2277.967115,2526.820666,-8958.727814
52.561095,497.707101,1473.978722,-9475.577496
52.563666,995.414202,344.566454,-8843.872330
52.566237,842.273555,689.132909,-8843.872330
52.568809,459.421939,306.281293,-9226.723946
52.571380,-650.847747,-2584.248408,-9667.003304
52.573951,2488.535504,1818.545176,-8614.161360
52.576523,1033.699363,-459.421939,-9456.434915
52.579094,38.285162,-1895.115499,-9379.864592
52.581665,2622.533570,57.427742,-9035.298138
52.584236,2794.816797,-937.986459,-9073.583299
52.586808,-880.558717,-2105.683888,-9360.722011
52.589379,1952.543242,-1359.123237,-8958.727814
52.591950,2009.970984,440.279358,-8882.157491
52.594522,-114.855485,1263.410333,-9475.577496
52.597093,2048.256146,-1339.980656,-9016.155557
52.599664,1971.685822,-57.427742,-9169.296203
52.602236,1435.693560,-516.849682,-9016.155557
52.604806,-689.132909,-1780.260014,-9571.290400
52.607377,2163.111630,3771.088418,-8384.450390
52.609948,1378.265818,401.994197,-9571.290400
52.612519,2775.674216,-1186.840010,-8901.300072
52.615090,287.138712,1186.840010,-9207.581365
52.617661,669.990328,1263.410333,-9226.723946
52.620232,363.709035,1875.972918,-8748.159426
52.622803,2258.824534,2852.244539,-8767.302006
52.625373,1359.123237,1895.115499,-8843.872330
52.627944,-765.703232,153.140646,-9245.866526
52.630515,2124.826469,1416.550979,-8671.589102
52.633086,1397.408398,-1646.261949,-9188.438784
52.635657,344.566454,1282.552914,-9437.292334
52.638228,2086.541307,-172.283227,-9092.725880
52.640799,497.707101,765.703232,-9418.149754
52.643369,-114.855485,2029.113565,-9226.723946
52.645940,1933.400661,4153.940034,-8901.300072
52.648511,1397.408398,440.279358,-9169.296203
52.651082,172.283227,1493.121302,-9284.151688
52.653653,1416.550979,-669.990328,-8824.729749
52.656224,401.994197,765.703232,-9054.440718
52.658795,1837.687757,1110.269686,-9226.723946
52.661365,1493.121302,-1282.552914,-9073.583299
52.663936,325.423874,-172.283227,-8997.012976
52.666507,2316.252277,918.843878,-8977.870395
52.669078,382.851616,-1799.402595,-9418.149754
52.671649,2469.392923,-57.427742,-8939.585234
52.674220,1091.127106,-2833.101958,-9284.151688
52.676791,-325.423874,-555.134843,-9169.296203
52.679361,727.418070,-1856.830338,-9609.575562
52.681932,2048.256146,1320.838075,-8729.016845
52.684503,1339.980656,3273.381317,-8958.727814
52.687074,1167.697429,-2182.254211,-9456.434915
52.689645,1148.554848,-3254.238736,-9303.294269
52.692215,2048.256146,2641.676150,-8671.589102
52.694786,210.568389,-1722.832272,-9399.007173
52.697357,823.130974,-2718.246474,-9188.438784
52.699928,2297.109696,2124.826469,-9092.725880
52.702498,1244.267752,-306.281293,-9341.579430
52.705069,1320.838075,1933.400661,-8997.012976
52.707640,267.996131,1761.117434,-9131.011042
52.710211,1301.695494,382.851616,-8901.300072
52.712781,325.423874,0.000000,-9379.864592
52.715352,2029.113565,2335.394858,-8461.020714
52.717923,593.420005,708.275490,-9265.009107
52.720494,306.281293,1378.265818,-9475.577496
52.723064,612.562586,-650.847747,-9226.723946
52.725635,1378.265818,-708.275490,-9035.298138
52.728206,2067.398726,3713.660675,-8843.872330
52.730776,803.988394,4843.072942,-8690.731683
52.733347,995.414202,2488.535504,-9054.440718
52.735918,1531.406464,-669.990328,-9169.296203
52.738489,765.703232,459.421939,-9092.725880
52.741059,976.271621,708.275490,-9456.434915
52.743630,497.707101,2297.109696,-8843.872330
52.746201,1531.406464,497.707101,-9054.440718
52.748772,306.281293,-2450.250342,-9571.290400
52.751342,2469.392923,497.707101,-8595.018779
52.753913,784.845813,957.129040,-9399.007173
52.756484,2124.826469,-1378.265818,-9035.298138
52.759055,1741.974853,-382.851616,-9092.725880
52.761625,1646.261949,76.570323,-8882.157491
52.764196,421.136778,2526.820666,-8920.442653
52.766767,2756.531635,3349.951640,-8461.020714
52.769338,248.853550,-1741.974853,-9341.579430
52.771908,899.701298,-2220.539373,-9092.725880
52.774479,2124.826469,-3617.947771,-9245.866526
52.777050,1761.117434,-1933.400661,-9188.438784
52.779621,1588.834206,1071.984525,-9322.436850
52.782191,287.138712,-2373.680019,-9265.009107
52.784762,746.560651,2354.537438,-9073.583299
52.787333,1646.261949,2584.248408,-9111.868461
52.789903,2009.970984,-593.420005,-9188.438784
52.792473,2009.970984,1186.840010,-8767.302006
52.795043,-631.705166,2220.539373,-9303.294269
52.797613,535.992262,1244.267752,-8920.442653
52.800183,1971.685822,2718.246474,-8786.444587
52.802753,1627.119368,2450.250342,-8709.874264
52.805323,-421.136778,-1856.830338,-9705.288466
52.807893,1397.408398,3177.668413,-8920.442653
52.810463,1454.836141,5111.069074,-8863.014910
52.813033,2507.678085,5206.781978,-8575.876198
52.815602,-459.421939,-995.414202,-9743.573627
52.818172,1569.691626,2909.672282,-8441.878133
52.820742,2105.683888,5895.914886,-8901.300072
52.823312,976.271621,-1129.412267,-9016.155557
52.825882,-516.849682,2258.824534,-9456.434915
52.828452,3637.090352,2316.252277,-8269.594906
52.831022,-267.996131,516.849682,-9456.434915
52.833592,-880.558717,1129.412267,-9188.438784
52.836162,3713.660675,-1531.406464,-8843.872330
52.838732,3177.668413,957.129040,-8461.020714
52.841302,-1282.552914,76.570323,-9743.573627
52.843872,2756.531635,-1339.980656,-8748.159426
52.846442,2124.826469,478.564520,-9341.579430
52.849012,-38.285162,-631.705166,-9303.294269
52.851582,1914.258080,-2871.387120,-8767.302006
52.854152,1282.552914,-2258.824534,-9188.438784
52.856722,344.566454,325.423874,-9265.009107
52.859292,3158.525832,8882.157491,-8154.739421
52.861862,976.271621,-4441.078746,-9667.003304
52.864432,727.418070,-9226.723946,-9360.722011
52.867002,746.560651,-1914.258080,-8920.442653
52.869572,2277.967115,1646.261949,-8652.446522
52.872142,-363.709035,995.414202,-9513.862658
52.874712,2335.394858,-880.558717,-8997.012976
52.877282,2488.535504,-784.845813,-9073.583299
52.879852,-287.138712,2507.678085,-9379.864592
52.882422,1914.258080,2699.103893,-8824.729749
52.884992,535.992262,421.136778,-8901.300072
52.887562,-133.998066,2124.826469,-9284.151688
52.890132,2373.680019,1780.260014,-8690.731683
52.892701,57.427742,497.707101,-9016.155557
52.895271,689.132909,3905.086483,-8997.012976
52.897840,2852.244539,3541.377448,-8671.589102
52.900410,-38.285162,-746.560651,-9284.151688
